# accelerometer data
# file: 'rgbd_dataset_freiburg1_plant.bag'
# timestamp ax ay az
1305032350.214655 2.215177 9.447432 -0.910019
1305032350.215620 2.215177 9.447432 -0.910019
1305032350.219241 2.310969 9.160058 -0.910019
1305032350.220420 2.310969 9.160058 -0.910019
1305032350.223536 2.215177 8.788866 -0.957915
1305032350.224521 2.215177 8.788866 -0.957915
1305032350.228142 2.107412 8.728996 -1.005810
1305032350.229136 2.107412 8.728996 -1.005810
1305032350.232540 2.107412 8.393726 -1.293185
1305032350.233539 2.107412 8.393726 -1.293185
1305032350.234917 2.107412 8.393726 -1.293185
1305032350.236029 2.107412 8.393726 -1.293185
1305032350.239427 2.215177 8.202143 -1.197393
1305032350.240399 2.215177 8.202143 -1.197393
1305032350.243565 2.358865 8.369778 -1.293185
1305032350.244671 2.358865 8.369778 -1.293185
1305032350.248281 2.418734 8.681100 -1.305159
1305032350.249292 2.418734 8.681100 -1.305159
1305032350.252375 2.406760 8.968475 -1.293185
1305032350.253550 2.406760 8.968475 -1.293185
1305032350.254658 2.406760 8.968475 -1.293185
1305032350.255799 2.406760 8.968475 -1.293185
1305032350.259400 2.490578 9.351641 -0.957915
1305032350.260465 2.490578 9.351641 -0.957915
1305032350.263712 2.490578 9.830598 -0.910019
1305032350.264686 2.490578 9.830598 -0.910019
1305032350.268314 2.586369 10.117972 -1.101602
1305032350.269331 2.586369 10.117972 -1.101602
1305032350.272688 2.742030 10.309555 -1.101602
1305032350.273690 2.742030 10.309555 -1.101602
1305032350.274692 2.742030 10.309555 -1.101602
1305032350.278311 2.586369 10.680747 -1.101602
1305032350.279330 2.586369 10.680747 -1.101602
1305032350.282593 2.694135 10.596929 -1.293185
1305032350.283574 2.694135 10.596929 -1.293185
1305032350.287168 2.765978 10.405347 -1.484768
1305032350.288321 2.765978 10.405347 -1.484768
1305032350.289304 2.765978 10.405347 -1.484768
1305032350.292583 2.694135 10.309555 -1.676350
1305032350.293556 2.694135 10.309555 -1.676350
1305032350.297154 2.789926 10.285607 -1.963725
1305032350.298308 2.789926 10.285607 -1.963725
1305032350.299428 2.789926 10.285607 -1.963725
1305032350.300583 2.789926 10.285607 -1.963725
1305032350.303711 2.801900 10.022181 -2.442682
1305032350.304835 2.801900 10.022181 -2.442682
1305032350.308499 2.981509 9.926389 -2.825848
1305032350.309538 2.981509 9.926389 -2.825848
1305032350.312565 3.077300 9.734806 -3.113222
1305032350.313746 3.077300 9.734806 -3.113222
1305032350.317193 2.873744 9.639015 -3.209014
1305032350.318193 2.873744 9.639015 -3.209014
1305032350.319458 2.873744 9.639015 -3.209014
1305032350.320593 2.873744 9.639015 -3.209014
1305032350.323711 2.789926 9.543224 -3.496388
1305032350.324889 2.789926 9.543224 -3.496388
1305032350.328362 2.586369 9.543224 -3.304805
1305032350.329470 2.586369 9.543224 -3.304805
1305032350.332574 2.586369 9.591119 -3.232962
1305032350.333589 2.586369 9.591119 -3.232962
1305032350.337189 2.490578 9.591119 -3.113222
1305032350.338375 2.490578 9.591119 -3.113222
1305032350.339476 2.490578 9.591119 -3.113222
1305032350.340566 2.490578 9.591119 -3.113222
1305032350.343757 2.694135 9.830598 -2.849796
1305032350.344721 2.694135 9.830598 -2.849796
1305032350.348363 2.777952 9.974285 -2.442682
1305032350.349481 2.777952 9.974285 -2.442682
1305032350.352546 2.789926 10.117972 -2.059516
1305032350.353745 2.789926 10.117972 -2.059516
1305032350.357238 2.825848 10.309555 -1.867933
1305032350.358353 2.825848 10.309555 -1.867933
1305032350.359495 2.825848 10.309555 -1.867933
1305032350.360648 2.825848 10.309555 -1.867933
1305032350.363727 2.981509 10.405347 -1.484768
1305032350.364737 2.981509 10.405347 -1.484768
1305032350.368409 3.161118 10.309555 -1.580559
1305032350.369359 3.161118 10.309555 -1.580559
1305032350.372593 2.873744 10.405347 -1.293185
1305032350.373742 2.873744 10.405347 -1.293185
1305032350.377202 2.981509 10.309555 -1.388976
1305032350.378194 2.981509 10.309555 -1.388976
1305032350.379470 2.981509 10.309555 -1.388976
1305032350.380628 2.981509 10.309555 -1.388976
1305032350.383598 2.742030 10.501138 -1.341080
1305032350.384744 2.742030 10.501138 -1.341080
1305032350.388367 2.586369 10.692721 -1.484768
1305032350.389379 2.586369 10.692721 -1.484768
1305032350.392630 2.406760 10.788512 -1.676350
1305032350.393599 2.406760 10.788512 -1.676350
1305032350.395176 2.406760 10.788512 -1.676350
1305032350.396248 2.406760 10.788512 -1.676350
1305032350.399482 2.011621 11.267470 -1.867933
1305032350.400625 2.011621 11.267470 -1.867933
1305032350.403769 2.035568 11.459053 -2.059516
1305032350.404750 2.035568 11.459053 -2.059516
1305032350.408239 2.011621 11.459053 -2.059516
1305032350.409341 2.011621 11.459053 -2.059516
1305032350.412664 1.999647 11.459053 -2.035568
1305032350.413648 1.999647 11.459053 -2.035568
1305032350.414769 1.999647 11.459053 -2.035568
1305032350.415880 1.999647 11.459053 -2.035568
1305032350.419362 2.011621 11.363261 -1.867933
1305032350.420516 2.011621 11.363261 -1.867933
1305032350.423644 2.035568 11.075887 -2.059516
1305032350.424736 2.035568 11.075887 -2.059516
1305032350.428228 2.023594 10.884304 -1.867933
1305032350.429228 2.023594 10.884304 -1.867933
1305032350.432499 2.107412 10.716669 -1.700298
1305032350.433485 2.107412 10.716669 -1.700298
1305032350.434724 2.107412 10.716669 -1.700298
1305032350.435720 2.107412 10.716669 -1.700298
1305032350.439350 2.394786 10.321529 -2.059516
1305032350.440488 2.394786 10.321529 -2.059516
1305032350.443767 2.406760 10.117972 -1.867933
1305032350.444758 2.406760 10.117972 -1.867933
1305032350.448404 2.406760 9.950337 -1.963725
1305032350.449378 2.406760 9.950337 -1.963725
1305032350.452645 2.310969 9.830598 -1.963725
1305032350.453635 2.310969 9.830598 -1.963725
1305032350.457236 2.406760 9.734806 -2.047542
1305032350.458264 2.406760 9.734806 -2.047542
1305032350.459527 2.406760 9.734806 -2.047542
1305032350.460531 2.406760 9.734806 -2.047542
1305032350.463636 2.394786 9.734806 -2.059516
1305032350.464788 2.394786 9.734806 -2.059516
1305032350.468402 2.394786 9.543224 -1.867933
1305032350.469368 2.394786 9.543224 -1.867933
1305032350.472666 2.358865 9.543224 -2.011621
1305032350.473670 2.358865 9.543224 -2.011621
1305032350.477289 2.215177 9.734806 -1.676350
1305032350.478429 2.215177 9.734806 -1.676350
1305032350.479516 2.215177 9.734806 -1.676350
1305032350.480672 2.215177 9.734806 -1.676350
1305032350.483785 2.011621 9.926389 -1.293185
1305032350.484780 2.011621 9.926389 -1.293185
1305032350.488448 2.035568 10.261659 -1.317132
1305032350.489401 2.035568 10.261659 -1.317132
1305032350.492674 2.215177 10.309555 -1.005810
1305032350.493652 2.215177 10.309555 -1.005810
1305032350.497268 2.011621 10.501138 -0.910019
1305032350.498272 2.011621 10.501138 -0.910019
1305032350.499504 2.011621 10.501138 -0.910019
1305032350.500505 2.011621 10.501138 -0.910019
1305032350.503634 2.394786 10.644825 -0.718436
1305032350.504787 2.394786 10.644825 -0.718436
1305032350.508429 2.215177 10.788512 -0.431062
1305032350.509409 2.215177 10.788512 -0.431062
1305032350.512678 2.310969 10.884304 -0.526853
1305032350.513681 2.310969 10.884304 -0.526853
1305032350.517278 2.406760 10.692721 -0.718436
1305032350.518319 2.406760 10.692721 -0.718436
1305032350.519556 2.406760 10.692721 -0.718436
1305032350.520666 2.406760 10.692721 -0.718436
1305032350.523826 2.310969 10.501138 -0.910019
1305032350.524773 2.310969 10.501138 -0.910019
1305032350.528450 2.310969 10.405347 -1.293185
1305032350.529425 2.310969 10.405347 -1.293185
1305032350.532688 2.215177 10.309555 -1.388976
1305032350.533651 2.215177 10.309555 -1.388976
1305032350.537507 2.215177 10.309555 -1.724246
1305032350.538426 2.215177 10.309555 -1.724246
1305032350.539522 2.215177 10.309555 -1.724246
1305032350.542663 2.011621 10.117972 -2.155308
1305032350.543674 2.011621 10.117972 -2.155308
1305032350.547322 2.107412 10.309555 -2.442682
1305032350.548449 2.107412 10.309555 -2.442682
1305032350.549565 2.107412 10.309555 -2.442682
1305032350.550698 2.107412 10.309555 -2.442682
1305032350.553936 2.059516 9.926389 -2.825848
1305032350.554983 2.059516 9.926389 -2.825848
1305032350.558496 2.310969 9.926389 -2.873744
1305032350.559488 2.310969 9.926389 -2.873744
1305032350.562702 2.215177 9.974285 -2.921639
1305032350.563684 2.215177 9.974285 -2.921639
1305032350.567233 2.406760 9.974285 -3.017431
1305032350.568286 2.406760 9.974285 -3.017431
1305032350.569541 2.406760 9.974285 -3.017431
1305032350.570545 2.406760 9.974285 -3.017431
1305032350.573835 2.394786 10.022181 -2.730056
1305032350.574805 2.394786 10.022181 -2.730056
1305032350.578435 2.358865 9.950337 -2.777952
1305032350.579426 2.358865 9.950337 -2.777952
1305032350.582712 2.442682 9.938363 -2.442682
1305032350.583694 2.442682 9.938363 -2.442682
1305032350.587301 2.586369 9.974285 -2.346891
1305032350.588489 2.586369 9.974285 -2.346891
1305032350.589609 2.586369 9.974285 -2.346891
1305032350.590755 2.586369 9.974285 -2.346891
1305032350.593843 2.789926 9.734806 -2.251099
1305032350.594832 2.789926 9.734806 -2.251099
1305032350.598431 2.789926 9.639015 -2.251099
1305032350.599424 2.789926 9.639015 -2.251099
1305032350.602710 2.981509 9.543224 -1.867933
1305032350.603703 2.981509 9.543224 -1.867933
1305032350.607321 2.981509 9.351641 -1.700298
1305032350.608343 2.981509 9.351641 -1.700298
1305032350.609602 2.981509 9.351641 -1.700298
1305032350.610583 2.981509 9.351641 -1.700298
1305032350.613873 2.777952 9.495328 -1.867933
1305032350.614855 2.777952 9.495328 -1.867933
1305032350.618502 2.694135 9.543224 -1.628455
1305032350.619502 2.694135 9.543224 -1.628455
1305032350.622739 2.586369 9.543224 -1.676350
1305032350.623714 2.586369 9.543224 -1.676350
1305032350.627387 2.442682 9.734806 -1.676350
1305032350.628357 2.442682 9.734806 -1.676350
1305032350.629648 2.442682 9.734806 -1.676350
1305032350.630632 2.442682 9.734806 -1.676350
1305032350.633708 2.406760 9.926389 -1.628455
1305032350.634860 2.406760 9.926389 -1.628455
1305032350.638323 2.586369 9.926389 -1.700298
1305032350.639307 2.586369 9.926389 -1.700298
1305032350.642600 2.442682 9.974285 -1.676350
1305032350.643738 2.442682 9.974285 -1.676350
1305032350.645061 2.442682 9.974285 -1.676350
1305032350.646367 2.442682 9.974285 -1.676350
1305032350.649602 2.406760 10.022181 -2.059516
1305032350.650745 2.406760 10.022181 -2.059516
1305032350.653878 2.406760 10.117972 -2.059516
1305032350.654910 2.406760 10.117972 -2.059516
1305032350.658368 2.406760 9.926389 -2.059516
1305032350.659336 2.406760 9.926389 -2.059516
1305032350.662640 2.406760 9.734806 -2.059516
1305032350.663749 2.406760 9.734806 -2.059516
1305032350.665215 2.406760 9.734806 -2.059516
1305032350.666341 2.406760 9.734806 -2.059516
1305032350.669596 2.382812 9.878494 -1.963725
1305032350.670595 2.382812 9.878494 -1.963725
1305032350.673867 2.406760 9.543224 -2.059516
1305032350.674895 2.406760 9.543224 -2.059516
1305032350.678513 2.406760 9.447432 -2.107412
1305032350.679509 2.406760 9.447432 -2.107412
1305032350.682794 2.406760 9.160058 -2.155308
1305032350.683718 2.406760 9.160058 -2.155308
1305032350.687298 2.694135 8.968475 -2.107412
1305032350.688522 2.694135 8.968475 -2.107412
1305032350.689487 2.694135 8.968475 -2.107412
1305032350.692778 2.742030 8.681100 -2.059516
1305032350.693751 2.742030 8.681100 -2.059516
1305032350.697355 2.442682 8.585309 -1.867933
1305032350.698356 2.442682 8.585309 -1.867933
1305032350.699599 2.442682 8.585309 -1.867933
1305032350.700604 2.442682 8.585309 -1.867933
1305032350.703733 2.490578 8.585309 -1.867933
1305032350.704887 2.490578 8.585309 -1.867933
1305032350.708587 2.406760 8.681100 -1.676350
1305032350.709490 2.406760 8.681100 -1.676350
1305032350.712694 2.490578 8.764918 -1.676350
1305032350.713643 2.490578 8.764918 -1.676350
1305032350.714881 2.490578 8.764918 -1.676350
1305032350.715880 2.490578 8.764918 -1.676350
1305032350.719533 2.358865 9.160058 -1.676350
1305032350.720501 2.358865 9.160058 -1.676350
1305032350.723780 2.406760 9.207953 -1.724246
1305032350.724776 2.406760 9.207953 -1.724246
1305032350.728393 2.310969 9.591119 -1.676350
1305032350.729386 2.310969 9.591119 -1.676350
1305032350.732647 2.310969 9.734806 -1.676350
1305032350.733819 2.310969 9.734806 -1.676350
1305032350.735093 2.310969 9.734806 -1.676350
1305032350.738421 2.394786 9.926389 -1.676350
1305032350.739366 2.394786 9.926389 -1.676350
1305032350.742793 2.310969 10.022181 -1.628455
1305032350.743774 2.310969 10.022181 -1.628455
1305032350.747384 2.310969 10.213764 -1.388976
1305032350.748422 2.310969 10.213764 -1.388976
1305032350.749385 2.310969 10.213764 -1.388976
1305032350.752782 2.107412 10.213764 -1.484768
1305032350.753803 2.107412 10.213764 -1.484768
1305032350.757397 2.011621 10.117972 -1.293185
1305032350.758453 2.011621 10.117972 -1.293185
1305032350.759674 2.011621 10.117972 -1.293185
1305032350.760656 2.011621 10.117972 -1.293185
1305032350.763793 2.011621 9.974285 -1.293185
1305032350.764936 2.011621 9.974285 -1.293185
1305032350.768396 2.011621 10.022181 -1.293185
1305032350.769335 2.011621 10.022181 -1.293185
1305032350.772824 2.011621 9.926389 -1.484768
1305032350.773819 2.011621 9.926389 -1.484768
1305032350.774918 2.011621 9.926389 -1.484768
1305032350.776057 2.011621 9.926389 -1.484768
1305032350.779564 2.011621 9.734806 -1.484768
1305032350.780682 2.011621 9.734806 -1.484768
1305032350.783929 1.999647 9.555197 -1.664376
1305032350.784980 1.999647 9.555197 -1.664376
1305032350.788541 1.975699 9.734806 -1.664376
1305032350.789541 1.975699 9.734806 -1.664376
1305032350.792823 1.820038 9.734806 -1.580559
1305032350.793801 1.820038 9.734806 -1.580559
1305032350.797436 1.927803 9.734806 -1.676350
1305032350.798435 1.927803 9.734806 -1.676350
1305032350.799655 1.927803 9.734806 -1.676350
1305032350.800784 1.927803 9.734806 -1.676350
1305032350.803816 1.724246 9.639015 -1.676350
1305032350.804931 1.724246 9.639015 -1.676350
1305032350.808584 1.676350 9.543224 -1.772142
1305032350.809541 1.676350 9.543224 -1.772142
1305032350.812837 1.676350 9.555197 -2.011621
1305032350.813812 1.676350 9.555197 -2.011621
1305032350.817460 1.724246 9.543224 -2.011621
1305032350.818438 1.724246 9.543224 -2.011621
1305032350.819702 1.724246 9.543224 -2.011621
1305032350.820830 1.724246 9.543224 -2.011621
1305032350.823816 1.652403 9.734806 -2.059516
1305032350.824942 1.652403 9.734806 -2.059516
1305032350.828477 1.640429 9.926389 -1.963725
1305032350.829571 1.640429 9.926389 -1.963725
1305032350.832703 1.592533 9.974285 -1.867933
1305032350.833687 1.592533 9.974285 -1.867933
1305032350.834911 1.592533 9.974285 -1.867933
1305032350.835959 1.592533 9.974285 -1.867933
1305032350.839549 1.640429 10.213764 -2.059516
1305032350.840700 1.640429 10.213764 -2.059516
1305032350.843967 1.628455 10.309555 -1.676350
1305032350.844989 1.628455 10.309555 -1.676350
1305032350.848577 1.640429 10.285607 -1.772142
1305032350.849580 1.640429 10.285607 -1.772142
1305032350.852860 1.724246 10.213764 -1.963725
1305032350.853834 1.724246 10.213764 -1.963725
1305032350.857473 1.676350 10.213764 -1.772142
1305032350.858471 1.676350 10.213764 -1.772142
1305032350.859726 1.676350 10.213764 -1.772142
1305032350.860861 1.676350 10.213764 -1.772142
1305032350.863979 1.724246 10.333503 -1.963725
1305032350.865012 1.724246 10.333503 -1.963725
1305032350.868566 1.640429 10.501138 -1.867933
1305032350.869564 1.640429 10.501138 -1.867933
1305032350.872902 1.640429 10.692721 -1.963725
1305032350.873859 1.640429 10.692721 -1.963725
1305032350.877476 1.676350 10.596929 -2.155308
1305032350.878481 1.676350 10.596929 -2.155308
1305032350.879724 1.676350 10.596929 -2.155308
1305032350.880868 1.676350 10.596929 -2.155308
1305032350.883946 1.652403 10.357451 -2.442682
1305032350.885016 1.652403 10.357451 -2.442682
1305032350.888602 1.640429 10.213764 -2.442682
1305032350.889601 1.640429 10.213764 -2.442682
1305032350.892890 1.640429 9.974285 -2.634265
1305032350.893847 1.640429 9.974285 -2.634265
1305032350.897485 1.724246 9.926389 -2.825848
1305032350.898590 1.724246 9.926389 -2.825848
1305032350.899708 1.724246 9.926389 -2.825848
1305032350.900836 1.724246 9.926389 -2.825848
1305032350.903834 1.628455 9.734806 -2.825848
1305032350.905028 1.628455 9.734806 -2.825848
1305032350.908670 1.616481 9.519276 -2.825848
1305032350.909611 1.616481 9.519276 -2.825848
1305032350.912770 1.616481 9.543224 -2.825848
1305032350.913897 1.616481 9.543224 -2.825848
1305032350.915021 1.616481 9.543224 -2.825848
1305032350.916161 1.616481 9.543224 -2.825848
1305032350.919612 1.640429 9.543224 -3.017431
1305032350.920782 1.640429 9.543224 -3.017431
1305032350.924004 1.628455 9.591119 -2.825848
1305032350.925004 1.628455 9.591119 -2.825848
1305032350.928637 1.628455 9.543224 -2.825848
1305032350.929603 1.628455 9.543224 -2.825848
1305032350.932892 1.640429 9.639015 -2.730056
1305032350.933844 1.640429 9.639015 -2.730056
1305032350.937668 1.724246 9.639015 -2.538474
1305032350.938592 1.724246 9.639015 -2.538474
1305032350.939594 1.724246 9.639015 -2.538474
1305032350.942893 1.640429 9.926389 -2.538474
1305032350.943875 1.640429 9.926389 -2.538474
1305032350.947508 1.640429 10.117972 -2.442682
1305032350.948645 1.640429 10.117972 -2.442682
1305032350.949627 1.640429 10.117972 -2.442682
1305032350.952898 1.724246 10.309555 -2.538474
1305032350.953906 1.724246 10.309555 -2.538474
1305032350.957526 1.616481 10.405347 -2.490578
1305032350.958535 1.616481 10.405347 -2.490578
1305032350.959819 1.616481 10.405347 -2.490578
1305032350.960769 1.616481 10.405347 -2.490578
1305032350.963904 1.640429 10.596929 -2.490578
1305032350.965037 1.640429 10.596929 -2.490578
1305032350.968623 1.640429 10.692721 -2.634265
1305032350.969615 1.640429 10.692721 -2.634265
1305032350.972917 1.640429 10.788512 -2.825848
1305032350.973891 1.640429 10.788512 -2.825848
1305032350.977495 1.448846 10.884304 -3.017431
1305032350.978554 1.448846 10.884304 -3.017431
1305032350.979766 1.448846 10.884304 -3.017431
1305032350.980892 1.448846 10.884304 -3.017431
1305032350.984031 1.544637 10.788512 -3.304805
1305032350.985016 1.544637 10.788512 -3.304805
1305032350.988645 1.640429 10.596929 -3.592179
1305032350.989653 1.640429 10.596929 -3.592179
1305032350.993079 1.628455 10.501138 -3.783762
1305032350.994039 1.628455 10.501138 -3.783762
1305032350.997535 1.628455 10.285607 -3.975345
1305032350.998500 1.628455 10.285607 -3.975345
1305032350.999748 1.628455 10.285607 -3.975345
1305032351.000874 1.628455 10.285607 -3.975345
1305032351.003879 1.448846 9.950337 -3.687971
1305032351.005059 1.448846 9.950337 -3.687971
1305032351.008645 1.448846 9.639015 -3.783762
1305032351.009641 1.448846 9.639015 -3.783762
1305032351.012898 1.341080 9.543224 -3.544284
1305032351.013930 1.341080 9.543224 -3.544284
1305032351.017515 1.341080 9.351641 -3.568232
1305032351.018519 1.341080 9.351641 -3.568232
1305032351.019773 1.341080 9.351641 -3.568232
1305032351.020774 1.341080 9.351641 -3.568232
1305032351.024031 1.293185 9.255849 -3.209014
1305032351.025022 1.293185 9.255849 -3.209014
1305032351.028652 1.341080 9.184006 -2.825848
1305032351.029649 1.341080 9.184006 -2.825848
1305032351.032934 1.341080 9.351641 -2.777952
1305032351.033899 1.341080 9.351641 -2.777952
1305032351.037521 1.592533 9.447432 -2.346891
1305032351.038643 1.592533 9.447432 -2.346891
1305032351.039765 1.592533 9.447432 -2.346891
1305032351.040925 1.592533 9.447432 -2.346891
1305032351.044048 1.448846 9.543224 -1.724246
1305032351.045193 1.448846 9.543224 -1.724246
1305032351.048651 1.341080 9.543224 -1.484768
1305032351.049801 1.341080 9.543224 -1.484768
1305032351.053068 1.448846 9.734806 -1.101602
1305032351.054070 1.448846 9.734806 -1.101602
1305032351.057668 1.544637 9.734806 -0.910019
1305032351.058736 1.544637 9.734806 -0.910019
1305032351.059949 1.544637 9.734806 -0.910019
1305032351.060951 1.544637 9.734806 -0.910019
1305032351.063951 1.640429 9.639015 -0.910019
1305032351.065075 1.640429 9.639015 -0.910019
1305032351.068669 1.448846 9.734806 -0.718436
1305032351.069663 1.448846 9.734806 -0.718436
1305032351.072957 1.448846 9.878494 -0.814227
1305032351.073957 1.448846 9.878494 -0.814227
1305032351.077542 1.341080 9.734806 -0.910019
1305032351.078545 1.341080 9.734806 -0.910019
1305032351.079813 1.341080 9.734806 -0.910019
1305032351.080819 1.341080 9.734806 -0.910019
1305032351.084066 1.640429 9.543224 -1.293185
1305032351.085072 1.640429 9.543224 -1.293185
1305032351.088848 1.820038 9.255849 -1.676350
1305032351.089820 1.820038 9.255849 -1.676350
1305032351.093007 1.640429 9.207953 -1.580559
1305032351.093976 1.640429 9.207953 -1.580559
1305032351.097585 1.628455 8.968475 -1.867933
1305032351.098561 1.628455 8.968475 -1.867933
1305032351.099826 1.628455 8.968475 -1.867933
1305032351.100970 1.628455 8.968475 -1.867933
1305032351.104102 1.448846 8.872683 -2.251099
1305032351.105061 1.448846 8.872683 -2.251099
1305032351.108701 1.448846 8.776892 -2.251099
1305032351.109714 1.448846 8.776892 -2.251099
1305032351.113043 1.628455 8.824788 -2.454656
1305032351.113975 1.628455 8.824788 -2.454656
1305032351.117589 1.628455 8.968475 -2.394786
1305032351.118572 1.628455 8.968475 -2.394786
1305032351.119852 1.628455 8.968475 -2.394786
1305032351.120836 1.628455 8.968475 -2.394786
1305032351.124081 1.640429 8.968475 -2.634265
1305032351.125067 1.640429 8.968475 -2.634265
1305032351.128766 1.544637 9.136110 -2.634265
1305032351.129713 1.544637 9.136110 -2.634265
1305032351.132988 1.640429 9.160058 -2.442682
1305032351.133943 1.640429 9.160058 -2.442682
1305032351.137720 1.652403 9.112162 -2.490578
1305032351.138567 1.652403 9.112162 -2.490578
1305032351.139814 1.652403 9.112162 -2.490578
1305032351.141000 1.652403 9.112162 -2.490578
1305032351.144125 1.592533 9.255849 -2.251099
1305032351.145105 1.592533 9.255849 -2.251099
1305032351.148754 1.628455 9.447432 -2.251099
1305032351.149724 1.628455 9.447432 -2.251099
1305032351.152996 1.820038 9.447432 -2.442682
1305032351.153985 1.820038 9.447432 -2.442682
1305032351.157615 1.640429 9.543224 -2.538474
1305032351.158608 1.640429 9.543224 -2.538474
1305032351.159840 1.640429 9.543224 -2.538474
1305032351.160842 1.640429 9.543224 -2.538474
1305032351.163971 1.448846 9.567171 -2.442682
1305032351.165098 1.448846 9.567171 -2.442682
1305032351.168582 1.448846 9.734806 -2.418734
1305032351.169698 1.448846 9.734806 -2.418734
1305032351.172982 1.341080 9.830598 -2.346891
1305032351.173970 1.341080 9.830598 -2.346891
1305032351.175469 1.341080 9.830598 -2.346891
1305032351.178749 1.257263 9.639015 -2.346891
1305032351.179727 1.257263 9.639015 -2.346891
1305032351.183007 1.257263 9.567171 -2.466630
1305032351.184007 1.257263 9.567171 -2.466630
1305032351.187632 1.257263 9.543224 -2.346891
1305032351.188763 1.257263 9.543224 -2.346891
1305032351.189724 1.257263 9.543224 -2.346891
1305032351.193020 1.257263 9.543224 -2.442682
1305032351.194018 1.257263 9.543224 -2.442682
1305032351.197634 1.448846 9.543224 -2.346891
1305032351.198632 1.448846 9.543224 -2.346891
1305032351.199895 1.448846 9.543224 -2.346891
1305032351.200877 1.448846 9.543224 -2.346891
1305032351.204138 1.341080 9.543224 -2.059516
1305032351.205103 1.341080 9.543224 -2.059516
1305032351.208731 1.448846 9.351641 -2.059516
1305032351.209732 1.448846 9.351641 -2.059516
1305032351.213011 1.341080 9.639015 -1.724246
1305032351.214133 1.341080 9.639015 -1.724246
1305032351.217615 1.544637 9.543224 -1.867933
1305032351.218812 1.544637 9.543224 -1.867933
1305032351.220026 1.544637 9.543224 -1.867933
1305032351.221015 1.544637 9.543224 -1.867933
1305032351.224020 1.544637 9.734806 -1.867933
1305032351.225183 1.544637 9.734806 -1.867933
1305032351.228781 1.820038 9.734806 -2.107412
1305032351.229733 1.820038 9.734806 -2.107412
1305032351.232988 1.640429 9.734806 -2.251099
1305032351.233998 1.640429 9.734806 -2.251099
1305032351.237734 1.652403 9.639015 -2.538474
1305032351.238614 1.652403 9.639015 -2.538474
1305032351.239866 1.652403 9.639015 -2.538474
1305032351.241014 1.652403 9.639015 -2.538474
1305032351.244198 1.628455 9.878494 -2.825848
1305032351.245176 1.628455 9.878494 -2.825848
1305032351.248797 1.652403 10.117972 -3.113222
1305032351.249750 1.652403 10.117972 -3.113222
1305032351.253026 1.592533 10.213764 -3.113222
1305032351.254017 1.592533 10.213764 -3.113222
1305032351.257632 1.640429 10.297581 -3.209014
1305032351.258721 1.640429 10.297581 -3.209014
1305032351.259954 1.640429 10.297581 -3.209014
1305032351.260921 1.640429 10.297581 -3.209014
1305032351.264201 1.724246 10.309555 -3.592179
1305032351.265157 1.724246 10.309555 -3.592179
1305032351.268766 1.724246 10.285607 -3.927450
1305032351.269761 1.724246 10.285607 -3.927450
1305032351.273186 1.820038 10.285607 -4.166928
1305032351.274164 1.820038 10.285607 -4.166928
1305032351.277673 1.999647 10.213764 -4.358511
1305032351.278829 1.999647 10.213764 -4.358511
1305032351.279951 1.999647 10.213764 -4.358511
1305032351.281036 1.999647 10.213764 -4.358511
1305032351.284179 1.975699 10.117972 -4.550094
1305032351.285144 1.975699 10.117972 -4.550094
1305032351.288795 1.927803 10.117972 -4.645885
1305032351.289772 1.927803 10.117972 -4.645885
1305032351.293077 2.011621 9.902441 -4.741677
1305032351.294074 2.011621 9.902441 -4.741677
1305032351.297650 2.059516 9.639015 -4.645885
1305032351.298683 2.059516 9.639015 -4.645885
1305032351.299941 2.059516 9.639015 -4.645885
1305032351.301040 2.059516 9.639015 -4.645885
1305032351.304183 2.215177 9.519276 -4.741677
1305032351.305181 2.215177 9.519276 -4.741677
1305032351.308843 2.059516 9.495328 -4.741677
1305032351.309804 2.059516 9.495328 -4.741677
1305032351.313056 2.059516 9.255849 -4.741677
1305032351.314056 2.059516 9.255849 -4.741677
1305032351.317658 2.059516 9.207953 -4.645885
1305032351.318795 2.059516 9.207953 -4.645885
1305032351.319791 2.059516 9.207953 -4.645885
1305032351.323080 1.999647 9.160058 -4.358511
1305032351.324089 1.999647 9.160058 -4.358511
1305032351.327688 1.975699 9.351641 -3.999293
1305032351.328871 1.975699 9.351641 -3.999293
1305032351.330088 1.975699 9.351641 -3.999293
1305032351.331091 1.975699 9.351641 -3.999293
1305032351.334183 1.927803 9.351641 -3.975345
1305032351.335167 1.927803 9.351641 -3.975345
1305032351.338786 1.820038 9.447432 -3.592179
1305032351.339781 1.820038 9.447432 -3.592179
1305032351.343055 1.820038 9.495328 -3.209014
1305032351.344089 1.820038 9.495328 -3.209014
1305032351.347697 2.059516 9.351641 -3.304805
1305032351.348867 2.059516 9.351641 -3.304805
1305032351.349949 2.059516 9.351641 -3.304805
1305032351.351063 2.059516 9.351641 -3.304805
1305032351.354188 1.820038 9.543224 -2.825848
1305032351.355348 1.820038 9.543224 -2.825848
1305032351.358848 1.927803 9.351641 -2.730056
1305032351.359844 1.927803 9.351641 -2.730056
1305032351.363108 2.107412 9.255849 -2.825848
1305032351.364110 2.107412 9.255849 -2.825848
1305032351.367712 1.975699 9.447432 -2.730056
1305032351.368680 1.975699 9.447432 -2.730056
1305032351.369932 1.975699 9.447432 -2.730056
1305032351.370933 1.975699 9.447432 -2.730056
1305032351.374257 1.999647 9.255849 -3.017431
1305032351.375212 1.999647 9.255849 -3.017431
1305032351.378868 1.820038 9.351641 -2.825848
1305032351.379979 1.820038 9.351641 -2.825848
1305032351.383105 1.820038 9.160058 -2.849796
1305032351.384089 1.820038 9.160058 -2.849796
1305032351.387740 1.640429 9.207953 -3.017431
1305032351.388866 1.640429 9.207953 -3.017431
1305032351.389836 1.640429 9.207953 -3.017431
1305032351.393131 1.640429 9.136110 -3.209014
1305032351.394238 1.640429 9.136110 -3.209014
1305032351.397734 1.448846 8.968475 -3.209014
1305032351.398724 1.448846 8.968475 -3.209014
1305032351.399974 1.448846 8.968475 -3.209014
1305032351.401108 1.448846 8.968475 -3.209014
1305032351.404119 1.448846 8.968475 -3.209014
1305032351.405203 1.448846 8.968475 -3.209014
1305032351.408855 1.448846 8.872683 -3.304805
1305032351.409852 1.448846 8.872683 -3.304805
1305032351.413163 1.616481 8.776892 -3.304805
1305032351.414162 1.616481 8.776892 -3.304805
1305032351.415597 1.616481 8.776892 -3.304805
1305032351.418864 1.448846 8.776892 -3.209014
1305032351.420004 1.448846 8.776892 -3.209014
1305032351.423158 1.448846 8.800840 -3.209014
1305032351.424132 1.448846 8.800840 -3.209014
1305032351.427746 1.676350 8.728996 -3.304805
1305032351.428743 1.676350 8.728996 -3.304805
1305032351.430017 1.676350 8.728996 -3.304805
1305032351.430991 1.676350 8.728996 -3.304805
1305032351.434216 1.652403 8.776892 -3.209014
1305032351.435216 1.652403 8.776892 -3.209014
1305032351.438843 1.640429 8.728996 -3.209014
1305032351.439840 1.640429 8.728996 -3.209014
1305032351.443184 1.628455 8.585309 -3.161118
1305032351.444110 1.628455 8.585309 -3.161118
1305032351.447767 1.628455 8.441622 -3.017431
1305032351.448875 1.628455 8.441622 -3.017431
1305032351.449857 1.628455 8.441622 -3.017431
1305032351.453141 1.448846 8.393726 -2.921639
1305032351.454105 1.448846 8.393726 -2.921639
1305032351.457762 1.448846 8.202143 -2.730056
1305032351.458775 1.448846 8.202143 -2.730056
1305032351.460021 1.448846 8.202143 -2.730056
1305032351.461123 1.448846 8.202143 -2.730056
1305032351.464268 1.257263 8.106352 -2.490578
1305032351.465238 1.257263 8.106352 -2.490578
1305032351.468735 1.293185 8.058456 -2.442682
1305032351.469853 1.293185 8.058456 -2.442682
1305032351.473193 1.257263 8.202143 -2.059516
1305032351.474161 1.257263 8.202143 -2.059516
1305032351.477740 1.257263 8.369778 -1.867933
1305032351.478927 1.257263 8.369778 -1.867933
1305032351.480010 1.257263 8.369778 -1.867933
1305032351.481139 1.257263 8.369778 -1.867933
1305032351.484278 1.233315 8.393726 -1.772142
1305032351.485326 1.233315 8.393726 -1.772142
1305032351.488893 1.053706 8.405700 -1.676350
1305032351.489876 1.053706 8.405700 -1.676350
1305032351.493201 0.957915 8.393726 -1.341080
1305032351.494322 0.957915 8.393726 -1.341080
1305032351.497749 0.957915 8.441622 -1.293185
1305032351.498771 0.957915 8.441622 -1.293185
1305032351.500003 0.957915 8.441622 -1.293185
1305032351.501167 0.957915 8.441622 -1.293185
1305032351.504272 1.053706 8.393726 -1.628455
1305032351.505248 1.053706 8.393726 -1.628455
1305032351.508890 1.053706 8.393726 -1.388976
1305032351.509903 1.053706 8.393726 -1.388976
1305032351.513169 1.053706 8.441622 -1.580559
1305032351.514157 1.053706 8.441622 -1.580559
1305032351.517762 1.053706 8.393726 -1.388976
1305032351.518822 1.053706 8.393726 -1.388976
1305032351.520051 1.053706 8.393726 -1.388976
1305032351.521174 1.053706 8.393726 -1.388976
1305032351.524297 0.826201 8.393726 -1.676350
1305032351.525286 0.826201 8.393726 -1.676350
1305032351.528967 0.862123 8.202143 -1.724246
1305032351.529901 0.862123 8.202143 -1.724246
1305032351.533308 0.910019 8.034508 -2.011621
1305032351.534265 0.910019 8.034508 -2.011621
1305032351.537894 0.886071 8.010560 -2.251099
1305032351.538892 0.886071 8.010560 -2.251099
1305032351.540138 0.886071 8.010560 -2.251099
1305032351.541147 0.886071 8.010560 -2.251099
1305032351.544293 0.862123 8.010560 -2.251099
1305032351.545326 0.862123 8.010560 -2.251099
1305032351.548937 0.862123 7.914769 -2.394786
1305032351.549918 0.862123 7.914769 -2.394786
1305032351.553173 0.778306 7.818977 -2.155308
1305032351.554136 0.778306 7.818977 -2.155308
1305032351.557781 0.526853 7.818977 -2.155308
1305032351.558805 0.526853 7.818977 -2.155308
1305032351.560067 0.526853 7.818977 -2.155308
1305032351.561039 0.526853 7.818977 -2.155308
1305032351.564181 0.526853 7.818977 -2.251099
1305032351.565328 0.526853 7.818977 -2.251099
1305032351.568944 0.574749 7.914769 -2.346891
1305032351.569911 0.574749 7.914769 -2.346891
1305032351.573228 0.478957 7.818977 -2.071490
1305032351.574356 0.478957 7.818977 -2.071490
1305032351.577802 0.478957 8.106352 -2.059516
1305032351.578811 0.478957 8.106352 -2.059516
1305032351.580060 0.478957 8.106352 -2.059516
1305032351.581097 0.478957 8.106352 -2.059516
1305032351.584316 0.490931 8.202143 -1.867933
1305032351.585347 0.490931 8.202143 -1.867933
1305032351.588944 0.478957 8.393726 -1.628455
1305032351.589927 0.478957 8.393726 -1.628455
1305032351.593254 0.526853 8.393726 -1.484768
1305032351.594363 0.526853 8.393726 -1.484768
1305032351.597842 0.526853 8.417674 -1.341080
1305032351.598817 0.526853 8.417674 -1.341080
1305032351.600075 0.526853 8.417674 -1.341080
1305032351.601214 0.526853 8.417674 -1.341080
1305032351.604329 0.478957 8.489518 -1.484768
1305032351.605301 0.478957 8.489518 -1.484768
1305032351.609035 0.478957 8.489518 -1.580559
1305032351.609936 0.478957 8.489518 -1.580559
1305032351.613217 0.478957 8.381752 -1.772142
1305032351.614345 0.478957 8.381752 -1.772142
1305032351.617809 0.478957 8.381752 -1.772142
1305032351.618880 0.478957 8.381752 -1.772142
1305032351.620098 0.478957 8.381752 -1.772142
1305032351.621068 0.478957 8.381752 -1.772142
1305032351.624358 0.287374 8.010560 -2.059516
1305032351.625323 0.287374 8.010560 -2.059516
1305032351.628986 0.287374 8.106352 -2.011621
1305032351.629950 0.287374 8.106352 -2.011621
1305032351.633231 0.107765 8.202143 -2.107412
1305032351.634187 0.107765 8.202143 -2.107412
1305032351.637815 0.119739 8.393726 -2.346891
1305032351.638813 0.119739 8.393726 -2.346891
1305032351.640056 0.119739 8.393726 -2.346891
1305032351.641070 0.119739 8.393726 -2.346891
1305032351.644357 0.143687 8.489518 -2.251099
1305032351.645365 0.143687 8.489518 -2.251099
1305032351.648995 0.107765 8.681100 -2.346891
1305032351.649952 0.107765 8.681100 -2.346891
1305032351.653243 0.143687 8.776892 -2.251099
1305032351.654226 0.143687 8.776892 -2.251099
1305032351.657835 0.287374 8.968475 -2.155308
1305032351.658854 0.287374 8.968475 -2.155308
1305032351.660121 0.287374 8.968475 -2.155308
1305032351.661135 0.287374 8.968475 -2.155308
1305032351.664382 0.287374 9.064266 -2.059516
1305032351.665414 0.287374 9.064266 -2.059516
1305032351.668994 0.395140 8.968475 -2.155308
1305032351.669956 0.395140 8.968475 -2.155308
1305032351.673294 0.287374 9.160058 -2.059516
1305032351.674236 0.287374 9.160058 -2.059516
1305032351.677840 0.119739 9.351641 -1.867933
1305032351.678864 0.119739 9.351641 -1.867933
1305032351.680119 0.119739 9.351641 -1.867933
1305032351.681142 0.119739 9.351641 -1.867933
1305032351.684399 0.095791 9.172032 -1.963725
1305032351.685351 0.095791 9.172032 -1.963725
1305032351.689003 0.107765 8.968475 -1.867933
1305032351.689990 0.107765 8.968475 -1.867933
1305032351.693290 0.011974 8.968475 -2.083464
1305032351.694259 0.011974 8.968475 -2.083464
1305032351.695718 0.011974 8.968475 -2.083464
1305032351.696890 0.011974 8.968475 -2.083464
1305032351.700139 0.059870 9.064266 -2.251099
1305032351.701123 0.059870 9.064266 -2.251099
1305032351.704350 -0.083818 9.351641 -1.963725
1305032351.705348 -0.083818 9.351641 -1.963725
1305032351.709022 0.011974 9.543224 -1.963725
1305032351.710008 0.011974 9.543224 -1.963725
1305032351.713129 -0.239479 9.543224 -2.059516
1305032351.714227 -0.239479 9.543224 -2.059516
1305032351.715379 -0.239479 9.543224 -2.059516
1305032351.716352 -0.239479 9.543224 -2.059516
1305032351.720025 -0.083818 9.830598 -1.772142
1305032351.721133 -0.083818 9.830598 -1.772142
1305032351.724398 -0.083818 9.830598 -1.580559
1305032351.725373 -0.083818 9.830598 -1.580559
1305032351.729028 0.107765 9.567171 -1.580559
1305032351.729995 0.107765 9.567171 -1.580559
1305032351.733278 0.119739 9.447432 -1.484768
1305032351.734246 0.119739 9.447432 -1.484768
1305032351.735487 0.119739 9.447432 -1.484768
1305032351.736862 0.119739 9.447432 -1.484768
1305032351.740115 0.107765 9.351641 -1.101602
1305032351.741247 0.107765 9.351641 -1.101602
1305032351.744290 0.107765 9.160058 -1.101602
1305032351.745421 0.107765 9.160058 -1.101602
1305032351.749020 -0.083818 9.160058 -0.910019
1305032351.750020 -0.083818 9.160058 -0.910019
1305032351.753146 0.095791 9.160058 -0.910019
1305032351.754222 0.095791 9.160058 -0.910019
1305032351.755401 0.095791 9.160058 -0.910019
1305032351.756396 0.095791 9.160058 -0.910019
1305032351.760040 -0.083818 8.776892 -1.005810
1305032351.761194 -0.083818 8.776892 -1.005810
1305032351.764275 0.011974 8.393726 -0.910019
1305032351.765435 0.011974 8.393726 -0.910019
1305032351.769006 0.059870 9.160058 -0.335270
1305032351.770005 0.059870 9.160058 -0.335270
1305032351.773287 0.143687 9.207953 -0.095791
1305032351.774282 0.143687 9.207953 -0.095791
1305032351.777889 0.083818 9.112162 -0.191583
1305032351.778907 0.083818 9.112162 -0.191583
1305032351.780175 0.083818 9.112162 -0.191583
1305032351.781303 0.083818 9.112162 -0.191583
1305032351.784303 0.059870 9.148084 -0.191583
1305032351.785438 0.059870 9.148084 -0.191583
1305032351.789057 0.107765 9.112162 -0.514879
1305032351.790041 0.107765 9.112162 -0.514879
1305032351.793367 0.095791 8.872683 -0.478957
1305032351.794294 0.095791 8.872683 -0.478957
1305032351.797907 0.107765 8.800840 -0.814227
1305032351.798907 0.107765 8.800840 -0.814227
1305032351.800185 0.107765 8.800840 -0.814227
1305032351.801312 0.107765 8.800840 -0.814227
1305032351.804265 0.191583 8.968475 -0.910019
1305032351.805395 0.191583 8.968475 -0.910019
1305032351.809061 0.107765 8.968475 -0.862123
1305032351.810020 0.107765 8.968475 -0.862123
1305032351.813306 0.107765 9.148084 -0.718436
1305032351.814384 0.107765 9.148084 -0.718436
1305032351.817902 0.395140 9.112162 -0.538827
1305032351.818964 0.395140 9.112162 -0.538827
1305032351.820181 0.395140 9.112162 -0.538827
1305032351.821324 0.395140 9.112162 -0.538827
1305032351.824449 0.143687 9.112162 -0.239479
1305032351.825432 0.143687 9.112162 -0.239479
1305032351.829108 0.466983 8.788866 -0.143687
1305032351.830060 0.466983 8.788866 -0.143687
1305032351.833339 0.478957 8.441622 0.191583
1305032351.834289 0.478957 8.441622 0.191583
1305032351.835536 0.478957 8.441622 0.191583
1305032351.836913 0.478957 8.441622 0.191583
1305032351.840040 0.287374 8.106352 0.143687
1305032351.841242 0.287374 8.106352 0.143687
1305032351.844335 0.143687 7.914769 0.239479
1305032351.845464 0.143687 7.914769 0.239479
1305032351.849093 0.107765 7.435812 0.335270
1305032351.850046 0.107765 7.435812 0.335270
1305032351.853340 0.287374 7.220281 0.431062
1305032351.854415 0.287374 7.220281 0.431062
1305032351.855583 0.287374 7.220281 0.431062
1305032351.856970 0.287374 7.220281 0.431062
1305032351.860226 0.478957 7.052646 0.431062
1305032351.861221 0.478957 7.052646 0.431062
1305032351.864349 0.478957 7.052646 0.431062
1305032351.865476 0.478957 7.052646 0.431062
1305032351.868930 0.682514 6.908959 0.143687
1305032351.870052 0.682514 6.908959 0.143687
1305032351.873241 0.682514 7.052646 -0.143687
1305032351.874205 0.682514 7.052646 -0.143687
1305032351.875458 0.682514 7.052646 -0.143687
1305032351.876467 0.682514 7.052646 -0.143687
1305032351.880118 0.910019 7.244229 -0.143687
1305032351.881128 0.910019 7.244229 -0.143687
1305032351.884352 0.778306 7.627394 -0.143687
1305032351.885355 0.778306 7.627394 -0.143687
1305032351.888961 0.862123 7.818977 -0.431062
1305032351.889945 0.862123 7.818977 -0.431062
1305032351.893275 0.957915 8.010560 -0.431062
1305032351.894401 0.957915 8.010560 -0.431062
1305032351.895475 0.957915 8.010560 -0.431062
1305032351.896608 0.957915 8.010560 -0.431062
1305032351.900103 0.910019 8.393726 -0.143687
1305032351.901245 0.910019 8.393726 -0.143687
1305032351.904327 1.053706 8.393726 -0.143687
1305032351.905410 1.053706 8.393726 -0.143687
1305032351.909004 0.957915 8.369778 -0.239479
1305032351.909949 0.957915 8.369778 -0.239479
1305032351.913350 1.053706 8.202143 -0.478957
1305032351.914335 1.053706 8.202143 -0.478957
1305032351.915625 1.053706 8.202143 -0.478957
1305032351.916593 1.053706 8.202143 -0.478957
1305032351.920218 0.778306 8.405700 -0.335270
1305032351.921254 0.778306 8.405700 -0.335270
1305032351.924499 0.682514 8.489518 -0.335270
1305032351.925504 0.682514 8.489518 -0.335270
1305032351.929168 0.502905 8.405700 -0.478957
1305032351.930082 0.502905 8.405700 -0.478957
1305032351.933377 0.287374 8.585309 -0.431062
1305032351.934339 0.287374 8.585309 -0.431062
1305032351.937964 0.287374 8.489518 -0.335270
1305032351.938963 0.287374 8.489518 -0.335270
1305032351.940201 0.287374 8.489518 -0.335270
1305032351.941244 0.287374 8.489518 -0.335270
1305032351.944367 0.287374 8.788866 -0.143687
1305032351.945492 0.287374 8.788866 -0.143687
1305032351.949132 0.287374 8.776892 -0.335270
1305032351.950117 0.287374 8.776892 -0.335270
1305032351.953392 0.478957 8.585309 -0.526853
1305032351.954371 0.478957 8.585309 -0.526853
1305032351.958007 0.526853 8.417674 -0.478957
1305032351.959070 0.526853 8.417674 -0.478957
1305032351.960270 0.526853 8.417674 -0.478957
1305032351.961300 0.526853 8.417674 -0.478957
1305032351.964550 0.682514 8.585309 -0.191583
1305032351.965504 0.682514 8.585309 -0.191583
1305032351.969112 0.682514 8.585309 -0.335270
1305032351.970104 0.682514 8.585309 -0.335270
1305032351.973384 0.574749 8.393726 -0.478957
1305032351.974399 0.574749 8.393726 -0.478957
1305032351.977997 0.478957 8.345830 -0.622644
1305032351.979014 0.478957 8.345830 -0.622644
1305032351.980321 0.478957 8.345830 -0.622644
1305032351.981440 0.478957 8.345830 -0.622644
1305032351.984527 0.478957 8.393726 -0.239479
1305032351.985511 0.478957 8.393726 -0.239479
1305032351.989160 0.395140 8.405700 -0.143687
1305032351.990124 0.395140 8.405700 -0.143687
1305032351.993449 0.478957 8.489518 -0.239479
1305032351.994391 0.478957 8.489518 -0.239479
1305032351.997998 0.443035 8.417674 -0.335270
1305032351.999039 0.443035 8.417674 -0.335270
1305032352.000251 0.443035 8.417674 -0.335270
1305032352.001411 0.443035 8.417674 -0.335270
1305032352.004363 0.191583 8.585309 0.191583
1305032352.005500 0.191583 8.585309 0.191583
1305032352.009171 0.107765 8.489518 0.239479
1305032352.010157 0.107765 8.489518 0.239479
1305032352.013294 0.395140 8.393726 -0.047896
1305032352.014257 0.395140 8.393726 -0.047896
1305032352.015585 0.395140 8.393726 -0.047896
1305032352.016510 0.395140 8.393726 -0.047896
1305032352.020170 0.095791 8.764918 0.335270
1305032352.021154 0.095791 8.764918 0.335270
1305032352.024391 0.107765 8.776892 0.239479
1305032352.025404 0.107765 8.776892 0.239479
1305032352.029034 0.107765 8.776892 0.526853
1305032352.030006 0.107765 8.776892 0.526853
1305032352.033289 0.107765 8.728996 0.215531
1305032352.034270 0.107765 8.728996 0.215531
1305032352.035513 0.107765 8.728996 0.215531
1305032352.036512 0.107765 8.728996 0.215531
1305032352.040140 0.191583 8.585309 0.143687
1305032352.041286 0.191583 8.585309 0.143687
1305032352.044430 0.443035 8.776892 -0.047896
1305032352.045430 0.443035 8.776892 -0.047896
1305032352.049058 0.191583 9.064266 0.143687
1305032352.050037 0.191583 9.064266 0.143687
1305032352.053297 0.107765 8.776892 -0.095791
1305032352.054313 0.107765 8.776892 -0.095791
1305032352.055567 0.107765 8.776892 -0.095791
1305032352.056603 0.107765 8.776892 -0.095791
1305032352.060190 0.119739 8.776892 -0.478957
1305032352.061346 0.119739 8.776892 -0.478957
1305032352.064425 0.095791 8.776892 -0.526853
1305032352.065569 0.095791 8.776892 -0.526853
1305032352.069031 0.011974 8.585309 -0.526853
1305032352.070029 0.011974 8.585309 -0.526853
1305032352.073453 -0.239479 8.489518 -0.335270
1305032352.074446 -0.239479 8.489518 -0.335270
1305032352.075705 -0.239479 8.489518 -0.335270
1305032352.076697 -0.239479 8.489518 -0.335270
1305032352.080345 -0.083818 8.369778 -0.526853
1305032352.081366 -0.083818 8.369778 -0.526853
1305032352.084575 -0.191583 8.345830 -0.478957
1305032352.085560 -0.191583 8.345830 -0.478957
1305032352.089187 -0.083818 8.393726 -0.526853
1305032352.090165 -0.083818 8.393726 -0.526853
1305032352.093503 -0.083818 8.106352 -0.622644
1305032352.094457 -0.083818 8.106352 -0.622644
1305032352.095911 -0.083818 8.106352 -0.622644
1305032352.097087 -0.083818 8.106352 -0.622644
1305032352.100333 0.095791 8.202143 -0.526853
1305032352.101325 0.095791 8.202143 -0.526853
1305032352.104552 0.059870 8.441622 -0.143687
1305032352.105543 0.059870 8.441622 -0.143687
1305032352.109219 0.059870 8.585309 0.047896
1305032352.110213 0.059870 8.585309 0.047896
1305032352.113324 0.107765 8.585309 0.143687
1305032352.114473 0.107765 8.585309 0.143687
1305032352.115575 0.107765 8.585309 0.143687
1305032352.116572 0.107765 8.585309 0.143687
1305032352.120265 0.143687 8.776892 0.335270
1305032352.121375 0.143687 8.776892 0.335270
1305032352.124455 0.395140 8.968475 0.622644
1305032352.125467 0.395140 8.968475 0.622644
1305032352.129226 0.478957 8.824788 0.957915
1305032352.130242 0.478957 8.824788 0.957915
1305032352.133343 0.574749 8.968475 1.005810
1305032352.134304 0.574749 8.968475 1.005810
1305032352.135556 0.574749 8.968475 1.005810
1305032352.136553 0.574749 8.968475 1.005810
1305032352.140186 0.874097 8.872683 1.101602
1305032352.141346 0.874097 8.872683 1.101602
1305032352.144467 0.682514 9.160058 1.341080
1305032352.145638 0.682514 9.160058 1.341080
1305032352.149234 0.682514 9.136110 1.377002
1305032352.150216 0.682514 9.136110 1.377002
1305032352.153488 0.478957 9.207953 1.197393
1305032352.154491 0.478957 9.207953 1.197393
1305032352.158074 0.478957 9.255849 1.005810
1305032352.159156 0.478957 9.255849 1.005810
1305032352.160407 0.478957 9.255849 1.005810
1305032352.161398 0.478957 9.255849 1.005810
1305032352.164619 0.478957 9.160058 0.622644
1305032352.165617 0.478957 9.160058 0.622644
1305032352.169080 0.466983 9.160058 0.047896
1305032352.170199 0.466983 9.160058 0.047896
1305032352.173484 0.395140 9.351641 -0.239479
1305032352.174494 0.395140 9.351641 -0.239479
1305032352.175632 0.395140 9.351641 -0.239479
1305032352.176759 0.395140 9.351641 -0.239479
1305032352.180376 0.490931 9.543224 -0.574749
1305032352.181376 0.490931 9.543224 -0.574749
1305032352.184626 0.502905 9.567171 -0.910019
1305032352.185639 0.502905 9.567171 -0.910019
1305032352.189238 0.682514 9.531250 -1.245289
1305032352.190215 0.682514 9.531250 -1.245289
1305032352.193527 0.478957 9.495328 -1.388976
1305032352.194488 0.478957 9.495328 -1.388976
1305032352.198104 0.478957 9.531250 -1.628455
1305032352.199304 0.478957 9.531250 -1.628455
1305032352.200368 0.478957 9.531250 -1.628455
1305032352.201520 0.478957 9.531250 -1.628455
1305032352.204466 0.478957 9.255849 -1.580559
1305032352.205594 0.478957 9.255849 -1.580559
1305032352.209227 0.478957 9.160058 -1.580559
1305032352.210252 0.478957 9.160058 -1.580559
1305032352.213373 0.478957 8.776892 -1.580559
1305032352.214513 0.478957 8.776892 -1.580559
1305032352.215632 0.478957 8.776892 -1.580559
1305032352.216609 0.478957 8.776892 -1.580559
1305032352.220395 0.490931 8.776892 -1.101602
1305032352.221433 0.490931 8.776892 -1.101602
1305032352.224522 0.874097 8.585309 -1.101602
1305032352.225657 0.874097 8.585309 -1.101602
1305032352.229276 1.053706 8.776892 -0.814227
1305032352.230276 1.053706 8.776892 -0.814227
1305032352.233508 1.257263 8.824788 -0.526853
1305032352.234499 1.257263 8.824788 -0.526853
1305032352.238116 1.257263 9.136110 -0.239479
1305032352.239119 1.257263 9.136110 -0.239479
1305032352.240358 1.257263 9.136110 -0.239479
1305032352.241510 1.257263 9.136110 -0.239479
1305032352.244529 1.628455 9.543224 -0.239479
1305032352.245657 1.628455 9.543224 -0.239479
1305032352.249138 1.676350 9.926389 -0.335270
1305032352.250112 1.676350 9.926389 -0.335270
1305032352.253414 1.628455 10.213764 -0.335270
1305032352.254392 1.628455 10.213764 -0.335270
1305032352.255647 1.628455 10.213764 -0.335270
1305032352.256647 1.628455 10.213764 -0.335270
1305032352.260257 1.628455 10.357451 -0.526853
1305032352.261402 1.628455 10.357451 -0.526853
1305032352.264539 1.676350 10.405347 -0.526853
1305032352.265529 1.676350 10.405347 -0.526853
1305032352.269175 1.640429 10.501138 -0.478957
1305032352.270266 1.640429 10.501138 -0.478957
1305032352.271257 1.640429 10.501138 -0.478957
1305032352.274507 1.676350 10.309555 -0.718436
1305032352.275507 1.676350 10.309555 -0.718436
1305032352.279300 1.820038 10.117972 -1.005810
1305032352.280334 1.820038 10.117972 -1.005810
1305032352.283547 1.975699 9.926389 -1.197393
1305032352.284551 1.975699 9.926389 -1.197393
1305032352.288160 2.011621 9.543224 -1.293185
1305032352.289303 2.011621 9.543224 -1.293185
1305032352.290396 2.011621 9.543224 -1.293185
1305032352.291564 2.011621 9.543224 -1.293185
1305032352.294718 1.820038 9.543224 -1.293185
1305032352.295683 1.820038 9.543224 -1.293185
1305032352.299311 1.724246 9.351641 -1.341080
1305032352.300304 1.724246 9.351641 -1.341080
1305032352.303393 1.616481 9.543224 -1.341080
1305032352.304507 1.616481 9.543224 -1.341080
1305032352.308143 1.724246 9.351641 -1.724246
1305032352.309177 1.724246 9.351641 -1.724246
1305032352.310438 1.724246 9.351641 -1.724246
1305032352.311422 1.724246 9.351641 -1.724246
1305032352.314689 1.724246 9.591119 -1.867933
1305032352.315690 1.724246 9.591119 -1.867933
1305032352.319319 1.927803 9.926389 -1.867933
1305032352.320309 1.927803 9.926389 -1.867933
1305032352.323561 2.011621 9.926389 -2.107412
1305032352.324566 2.011621 9.926389 -2.107412
1305032352.328176 2.011621 10.309555 -2.155308
1305032352.329181 2.011621 10.309555 -2.155308
1305032352.330447 2.011621 10.309555 -2.155308
1305032352.331439 2.011621 10.309555 -2.155308
1305032352.334674 2.059516 10.644825 -2.059516
1305032352.335656 2.059516 10.644825 -2.059516
1305032352.339288 2.107412 10.596929 -2.251099
1305032352.340271 2.107412 10.596929 -2.251099
1305032352.343582 2.215177 10.680747 -2.071490
1305032352.344589 2.215177 10.680747 -2.071490
1305032352.348184 2.107412 10.501138 -2.083464
1305032352.349343 2.107412 10.501138 -2.083464
1305032352.350483 2.107412 10.501138 -2.083464
1305032352.351442 2.107412 10.501138 -2.083464
1305032352.354709 2.011621 10.022181 -2.059516
1305032352.355720 2.011621 10.022181 -2.059516
1305032352.359323 1.820038 9.926389 -1.867933
1305032352.360320 1.820038 9.926389 -1.867933
1305032352.363590 1.628455 9.543224 -1.867933
1305032352.364556 1.628455 9.543224 -1.867933
1305032352.368058 1.652403 9.160058 -1.724246
1305032352.369355 1.652403 9.160058 -1.724246
1305032352.370305 1.652403 9.160058 -1.724246
1305032352.373555 2.011621 8.968475 -1.772142
1305032352.374553 2.011621 8.968475 -1.772142
1305032352.378187 2.215177 9.160058 -1.580559
1305032352.379181 2.215177 9.160058 -1.580559
1305032352.380471 2.215177 9.160058 -1.580559
1305032352.381609 2.215177 9.160058 -1.580559
1305032352.384723 2.382812 9.172032 -0.933967
1305032352.385870 2.382812 9.172032 -0.933967
1305032352.389481 2.107412 9.351641 -0.526853
1305032352.390443 2.107412 9.351641 -0.526853
1305032352.393646 2.011621 9.112162 -0.502905
1305032352.394608 2.011621 9.112162 -0.502905
1305032352.398204 1.927803 8.824788 -0.335270
1305032352.399275 1.927803 8.824788 -0.335270
1305032352.400482 1.927803 8.824788 -0.335270
1305032352.401467 1.927803 8.824788 -0.335270
1305032352.404568 2.011621 8.800840 -0.526853
1305032352.405696 2.011621 8.800840 -0.526853
1305032352.409367 2.215177 9.112162 -0.622644
1305032352.410334 2.215177 9.112162 -0.622644
1305032352.413614 2.394786 9.160058 -0.910019
1305032352.414592 2.394786 9.160058 -0.910019
1305032352.418204 2.358865 9.447432 -0.910019
1305032352.419255 2.358865 9.447432 -0.910019
1305032352.420493 2.358865 9.447432 -0.910019
1305032352.421501 2.358865 9.447432 -0.910019
1305032352.424744 2.011621 9.926389 -0.718436
1305032352.425745 2.011621 9.926389 -0.718436
1305032352.429363 1.820038 10.213764 -0.910019
1305032352.430334 1.820038 10.213764 -0.910019
1305032352.433612 1.676350 10.357451 -0.622644
1305032352.434585 1.676350 10.357451 -0.622644
1305032352.438208 1.640429 10.644825 -0.478957
1305032352.439209 1.640429 10.644825 -0.478957
1305032352.440456 1.640429 10.644825 -0.478957
1305032352.441615 1.640429 10.644825 -0.478957
1305032352.444622 1.544637 11.027991 -0.526853
1305032352.445747 1.544637 11.027991 -0.526853
1305032352.449381 1.257263 11.075887 -0.478957
1305032352.450348 1.257263 11.075887 -0.478957
1305032352.453669 1.257263 11.075887 -0.335270
1305032352.454632 1.257263 11.075887 -0.335270
1305032352.456104 1.257263 11.075887 -0.335270
1305032352.457271 1.257263 11.075887 -0.335270
1305032352.460518 1.053706 11.123782 -0.526853
1305032352.461639 1.053706 11.123782 -0.526853
1305032352.464625 1.053706 11.123782 -0.431062
1305032352.465778 1.053706 11.123782 -0.431062
1305032352.469436 0.862123 11.075887 -0.143687
1305032352.470376 0.862123 11.075887 -0.143687
1305032352.473602 0.778306 11.075887 -0.502905
1305032352.474599 0.778306 11.075887 -0.502905
1305032352.478238 0.682514 11.267470 -0.478957
1305032352.479258 0.682514 11.267470 -0.478957
1305032352.480562 0.682514 11.267470 -0.478957
1305032352.481646 0.682514 11.267470 -0.478957
1305032352.484770 0.478957 11.459053 -0.239479
1305032352.485777 0.478957 11.459053 -0.239479
1305032352.489399 0.682514 11.459053 -0.335270
1305032352.490362 0.682514 11.459053 -0.335270
1305032352.493655 0.910019 11.447079 -0.526853
1305032352.494691 0.910019 11.447079 -0.526853
1305032352.495918 0.910019 11.447079 -0.526853
1305032352.496902 0.910019 11.447079 -0.526853
1305032352.500553 1.053706 11.171678 -0.239479
1305032352.501530 1.053706 11.171678 -0.239479
1305032352.504620 0.682514 10.980095 -0.143687
1305032352.505740 0.682514 10.980095 -0.143687
1305032352.509424 0.826201 10.788512 -0.239479
1305032352.510370 0.826201 10.788512 -0.239479
1305032352.513543 0.682514 10.692721 -0.119739
1305032352.514671 0.682514 10.692721 -0.119739
1305032352.515757 0.682514 10.692721 -0.119739
1305032352.516881 0.682514 10.692721 -0.119739
1305032352.520547 0.502905 10.740617 0.431062
1305032352.521512 0.502905 10.740617 0.431062
1305032352.524665 0.466983 10.884304 0.574749
1305032352.525763 0.466983 10.884304 0.574749
1305032352.529279 0.574749 10.884304 0.718436
1305032352.530259 0.574749 10.884304 0.718436
1305032352.533590 0.682514 11.075887 0.718436
1305032352.534499 0.682514 11.075887 0.718436
1305032352.535758 0.682514 11.075887 0.718436
1305032352.536755 0.682514 11.075887 0.718436
1305032352.540374 0.682514 11.075887 0.814227
1305032352.541401 0.682514 11.075887 0.814227
1305032352.544706 0.682514 11.075887 1.005810
1305032352.545689 0.682514 11.075887 1.005810
1305032352.548958 0.682514 10.884304 1.005810
1305032352.550261 0.682514 10.884304 1.005810
1305032352.553560 0.826201 10.884304 0.814227
1305032352.554540 0.826201 10.884304 0.814227
1305032352.555795 0.826201 10.884304 0.814227
1305032352.556807 0.826201 10.884304 0.814227
1305032352.560431 0.826201 10.692721 0.598697
1305032352.561564 0.826201 10.692721 0.598697
1305032352.564689 0.862123 10.668773 0.622644
1305032352.565818 0.862123 10.668773 0.622644
1305032352.569337 0.778306 10.333503 0.526853
1305032352.570265 0.778306 10.333503 0.526853
1305032352.573483 0.862123 10.117972 0.239479
1305032352.574478 0.862123 10.117972 0.239479
1305032352.575712 0.862123 10.117972 0.239479
1305032352.576792 0.862123 10.117972 0.239479
1305032352.580281 0.862123 9.734806 0.047896
1305032352.581486 0.862123 9.734806 0.047896
1305032352.584555 1.053706 9.734806 -0.143687
1305032352.585697 1.053706 9.734806 -0.143687
1305032352.588949 1.257263 9.734806 -0.191583
1305032352.590177 1.257263 9.734806 -0.191583
1305032352.593629 1.161471 9.734806 -0.143687
1305032352.594587 1.161471 9.734806 -0.143687
1305032352.595811 1.161471 9.734806 -0.143687
1305032352.596828 1.161471 9.734806 -0.143687
1305032352.600446 1.233315 9.543224 -0.335270
1305032352.601585 1.233315 9.543224 -0.335270
1305032352.604670 0.874097 9.543224 -0.143687
1305032352.605792 0.874097 9.543224 -0.143687
1305032352.609473 0.862123 9.447432 -0.155661
1305032352.610438 0.862123 9.447432 -0.155661
1305032352.613590 0.874097 9.447432 -0.143687
1305032352.614552 0.874097 9.447432 -0.143687
1305032352.615892 0.874097 9.447432 -0.143687
1305032352.616827 0.874097 9.447432 -0.143687
1305032352.620447 0.957915 9.531250 -0.239479
1305032352.621576 0.957915 9.531250 -0.239479
1305032352.624836 0.886071 9.543224 -0.335270
1305032352.625845 0.886071 9.543224 -0.335270
1305032352.629500 1.053706 9.591119 -0.335270
1305032352.630451 1.053706 9.591119 -0.335270
1305032352.633585 0.957915 9.639015 -0.239479
1305032352.634572 0.957915 9.639015 -0.239479
1305032352.635808 0.957915 9.639015 -0.239479
1305032352.636808 0.957915 9.639015 -0.239479
1305032352.640432 1.209367 9.543224 -0.335270
1305032352.641571 1.209367 9.543224 -0.335270
1305032352.644852 1.233315 9.351641 -0.191583
1305032352.645856 1.233315 9.351641 -0.191583
1305032352.649469 0.957915 9.184006 -0.143687
1305032352.650448 0.957915 9.184006 -0.143687
1305032352.653658 1.053706 9.064266 -0.143687
1305032352.654590 1.053706 9.064266 -0.143687
1305032352.655817 1.053706 9.064266 -0.143687
1305032352.656857 1.053706 9.064266 -0.143687
1305032352.660494 1.053706 9.064266 0.227505
1305032352.661490 1.053706 9.064266 0.227505
1305032352.664780 1.053706 8.968475 0.191583
1305032352.665722 1.053706 8.968475 0.191583
1305032352.669399 0.862123 9.160058 0.431062
1305032352.670332 0.862123 9.160058 0.431062
1305032352.673580 0.862123 9.351641 0.431062
1305032352.674577 0.862123 9.351641 0.431062
1305032352.675822 0.862123 9.351641 0.431062
1305032352.676854 0.862123 9.351641 0.431062
1305032352.680535 0.682514 9.531250 0.431062
1305032352.681516 0.682514 9.531250 0.431062
1305032352.684746 0.682514 9.543224 0.610671
1305032352.685747 0.682514 9.543224 0.610671
1305032352.689372 0.478957 9.734806 0.718436
1305032352.690484 0.478957 9.734806 0.718436
1305032352.691499 0.478957 9.734806 0.718436
1305032352.694754 0.574749 10.022181 0.718436
1305032352.695742 0.574749 10.022181 0.718436
1305032352.699378 0.574749 10.309555 1.053706
1305032352.700348 0.574749 10.309555 1.053706
1305032352.703594 0.478957 10.321529 1.293185
1305032352.704586 0.478957 10.321529 1.293185
1305032352.705842 0.478957 10.321529 1.293185
1305032352.706837 0.478957 10.321529 1.293185
1305032352.710463 0.490931 10.309555 1.005810
1305032352.711637 0.490931 10.309555 1.005810
1305032352.714744 0.478957 10.501138 1.101602
1305032352.715867 0.478957 10.501138 1.101602
1305032352.719373 0.478957 10.644825 1.017784
1305032352.720354 0.478957 10.644825 1.017784
1305032352.723642 0.478957 10.692721 0.814227
1305032352.724636 0.478957 10.692721 0.814227
1305032352.725874 0.478957 10.692721 0.814227
1305032352.727003 0.478957 10.692721 0.814227
1305032352.730481 0.490931 10.692721 0.622644
1305032352.731688 0.490931 10.692721 0.622644
1305032352.734860 0.287374 10.788512 0.574749
1305032352.735854 0.287374 10.788512 0.574749
1305032352.739362 0.095791 10.884304 0.431062
1305032352.740477 0.095791 10.884304 0.431062
1305032352.743778 0.095791 10.980095 0.287374
1305032352.744776 0.095791 10.980095 0.287374
1305032352.748417 -0.083818 10.980095 0.431062
1305032352.749538 -0.083818 10.980095 0.431062
1305032352.750515 -0.083818 10.980095 0.431062
1305032352.753781 -0.275400 10.980095 0.431062
1305032352.754791 -0.275400 10.980095 0.431062
1305032352.758374 -0.275400 11.075887 0.610671
1305032352.759381 -0.275400 11.075887 0.610671
1305032352.760663 -0.275400 11.075887 0.610671
1305032352.761784 -0.275400 11.075887 0.610671
1305032352.764769 -0.263426 11.267470 0.718436
1305032352.765918 -0.263426 11.267470 0.718436
1305032352.769583 -0.083818 11.171678 0.622644
1305032352.770508 -0.083818 11.171678 0.622644
1305032352.773751 -0.191583 11.267470 1.005810
1305032352.774750 -0.191583 11.267470 1.005810
1305032352.775872 -0.191583 11.267470 1.005810
1305032352.777009 -0.191583 11.267470 1.005810
1305032352.780706 0.011974 11.171678 1.377002
1305032352.781712 0.011974 11.171678 1.377002
1305032352.784798 0.095791 11.075887 1.388976
1305032352.785919 0.095791 11.075887 1.388976
1305032352.789550 0.095791 10.884304 1.484768
1305032352.790534 0.095791 10.884304 1.484768
1305032352.793679 0.095791 10.788512 1.580559
1305032352.794778 0.095791 10.788512 1.580559
1305032352.795909 0.095791 10.788512 1.580559
1305032352.796909 0.095791 10.788512 1.580559
1305032352.800522 0.107765 10.501138 1.580559
1305032352.801679 0.107765 10.501138 1.580559
1305032352.804772 0.095791 10.309555 1.293185
1305032352.805918 0.095791 10.309555 1.293185
1305032352.809444 0.095791 9.938363 1.293185
1305032352.810397 0.095791 9.938363 1.293185
1305032352.813688 0.107765 9.734806 0.993836
1305032352.814779 0.107765 9.734806 0.993836
1305032352.815917 0.107765 9.734806 0.993836
1305032352.817062 0.107765 9.734806 0.993836
1305032352.820547 0.287374 9.543224 0.814227
1305032352.821689 0.287374 9.543224 0.814227
1305032352.824792 0.119739 9.543224 0.646592
1305032352.825942 0.119739 9.543224 0.646592
1305032352.829426 0.107765 9.639015 0.622644
1305032352.830391 0.107765 9.639015 0.622644
1305032352.833718 0.287374 9.567171 0.598697
1305032352.834658 0.287374 9.567171 0.598697
1305032352.835904 0.287374 9.567171 0.598697
1305032352.836937 0.287374 9.567171 0.598697
1305032352.840520 0.395140 9.591119 0.622644
1305032352.841583 0.395140 9.591119 0.622644
1305032352.844686 0.443035 9.543224 0.622644
1305032352.845825 0.443035 9.543224 0.622644
1305032352.848935 0.478957 9.495328 0.598697
1305032352.850088 0.478957 9.495328 0.598697
1305032352.853606 0.395140 9.351641 0.670540
1305032352.854705 0.395140 9.351641 0.670540
1305032352.855872 0.395140 9.351641 0.670540
1305032352.856985 0.395140 9.351641 0.670540
1305032352.860418 0.478957 9.112162 0.646592
1305032352.861626 0.478957 9.112162 0.646592
1305032352.864699 0.526853 8.872683 0.431062
1305032352.865823 0.526853 8.872683 0.431062
1305032352.868837 0.478957 8.776892 0.622644
1305032352.869824 0.478957 8.776892 0.622644
1305032352.873428 0.478957 8.872683 0.646592
1305032352.874424 0.478957 8.872683 0.646592
1305032352.875677 0.478957 8.872683 0.646592
1305032352.876727 0.478957 8.872683 0.646592
1305032352.880002 0.478957 8.872683 0.981862
1305032352.880997 0.478957 8.872683 0.981862
1305032352.884598 0.490931 8.968475 0.718436
1305032352.885727 0.490931 8.968475 0.718436
1305032352.888847 0.478957 9.064266 0.957915
1305032352.889834 0.478957 9.064266 0.957915
1305032352.893525 0.287374 9.351641 0.718436
1305032352.894436 0.287374 9.351641 0.718436
1305032352.895730 0.287374 9.351641 0.718436
1305032352.896710 0.287374 9.351641 0.718436
1305032352.900020 0.095791 9.447432 1.005810
1305032352.900978 0.095791 9.447432 1.005810
1305032352.904435 0.191583 9.543224 0.814227
1305032352.905552 0.191583 9.543224 0.814227
1305032352.908844 0.191583 9.591119 1.005810
1305032352.909842 0.191583 9.591119 1.005810
1305032352.913485 0.107765 9.734806 0.910019
1305032352.914445 0.107765 9.734806 0.910019
1305032352.915735 0.107765 9.734806 0.910019
1305032352.916725 0.107765 9.734806 0.910019
1305032352.919886 0.107765 9.830598 0.622644
1305032352.920997 0.107765 9.830598 0.622644
1305032352.924509 0.143687 9.734806 0.598697
1305032352.925618 0.143687 9.734806 0.598697
1305032352.928720 0.191583 9.734806 0.622644
1305032352.929870 0.191583 9.734806 0.622644
1305032352.931103 0.191583 9.734806 0.622644
1305032352.932173 0.191583 9.734806 0.622644
1305032352.935714 0.287374 9.830598 0.239479
1305032352.936737 0.287374 9.830598 0.239479
1305032352.939833 0.191583 9.950337 0.431062
1305032352.940996 0.191583 9.950337 0.431062
1305032352.944464 0.107765 9.950337 0.646592
1305032352.945629 0.107765 9.950337 0.646592
1305032352.948916 0.143687 10.022181 0.622644
1305032352.949879 0.143687 10.022181 0.622644
1305032352.953112 0.287374 9.914415 0.622644
1305032352.954464 0.287374 9.914415 0.622644
1305032352.955920 0.287374 9.914415 0.622644
1305032352.958917 0.287374 9.734806 0.814227
1305032352.959930 0.287374 9.734806 0.814227
1305032352.963511 0.395140 9.734806 0.814227
1305032352.964634 0.395140 9.734806 0.814227
1305032352.965616 0.395140 9.734806 0.814227
1305032352.968895 0.574749 9.351641 0.814227
1305032352.969889 0.574749 9.351641 0.814227
1305032352.973481 0.682514 9.184006 0.622644
1305032352.974471 0.682514 9.184006 0.622644
1305032352.975723 0.682514 9.184006 0.622644
1305032352.976768 0.682514 9.184006 0.622644
1305032352.980000 0.574749 9.160058 0.431062
1305032352.981049 0.574749 9.160058 0.431062
1305032352.984490 0.478957 9.160058 0.431062
1305032352.985646 0.478957 9.160058 0.431062
1305032352.988794 0.478957 9.160058 0.143687
1305032352.989898 0.478957 9.160058 0.143687
1305032352.991004 0.478957 9.160058 0.143687
1305032352.992147 0.478957 9.160058 0.143687
1305032352.995637 0.574749 9.255849 0.191583
1305032352.996653 0.574749 9.255849 0.191583
1305032352.999912 0.526853 9.255849 0.287374
1305032353.000902 0.526853 9.255849 0.287374
1305032353.004488 0.490931 9.172032 0.431062
1305032353.005478 0.490931 9.172032 0.431062
1305032353.006490 0.490931 9.172032 0.431062
1305032353.009893 0.478957 9.160058 0.431062
1305032353.010873 0.478957 9.160058 0.431062
1305032353.014498 0.526853 9.160058 0.622644
1305032353.015541 0.526853 9.160058 0.622644
1305032353.018823 0.682514 9.351641 0.610671
1305032353.019825 0.682514 9.351641 0.610671
1305032353.021026 0.682514 9.351641 0.610671
1305032353.022023 0.682514 9.351641 0.610671
1305032353.025664 0.502905 9.184006 0.622644
1305032353.026645 0.502905 9.184006 0.622644
1305032353.029901 0.287374 9.160058 0.526853
1305032353.030909 0.287374 9.160058 0.526853
1305032353.033904 0.466983 9.255849 0.239479
1305032353.034885 0.466983 9.255849 0.239479
1305032353.038499 0.287374 9.255849 0.239479
1305032353.039504 0.287374 9.255849 0.239479
1305032353.040801 0.287374 9.255849 0.239479
1305032353.041781 0.287374 9.255849 0.239479
1305032353.044906 0.107765 9.447432 0.191583
1305032353.046050 0.107765 9.447432 0.191583
1305032353.049584 0.107765 9.543224 0.191583
1305032353.050657 0.107765 9.543224 0.191583
1305032353.053809 0.107765 9.734806 0.047896
1305032353.054788 0.107765 9.734806 0.047896
1305032353.056127 0.107765 9.734806 0.047896
1305032353.057055 0.107765 9.734806 0.047896
1305032353.060690 0.059870 10.285607 0.431062
1305032353.061668 0.059870 10.285607 0.431062
1305032353.064969 0.107765 10.309555 0.431062
1305032353.065924 0.107765 10.309555 0.431062
1305032353.069565 0.107765 10.309555 0.718436
1305032353.070512 0.107765 10.309555 0.718436
1305032353.073730 0.287374 10.309555 1.053706
1305032353.074886 0.287374 10.309555 1.053706
1305032353.076037 0.287374 10.309555 1.053706
1305032353.077198 0.287374 10.309555 1.053706
1305032353.080676 0.478957 10.309555 1.388976
1305032353.081806 0.478957 10.309555 1.388976
1305032353.085065 0.395140 10.309555 1.676350
1305032353.086032 0.395140 10.309555 1.676350
1305032353.089719 0.443035 10.213764 1.760168
1305032353.090683 0.443035 10.213764 1.760168
1305032353.093978 0.395140 10.117972 1.867933
1305032353.094934 0.395140 10.117972 1.867933
1305032353.096556 0.395140 10.117972 1.867933
1305032353.099713 0.443035 9.950337 1.772142
1305032353.100683 0.443035 9.950337 1.772142
1305032353.103915 0.478957 9.926389 1.796090
1305032353.104912 0.478957 9.926389 1.796090
1305032353.108580 0.478957 9.567171 1.676350
1305032353.109566 0.478957 9.567171 1.676350
1305032353.110534 0.478957 9.567171 1.676350
1305032353.113997 0.490931 9.591119 1.388976
1305032353.114951 0.490931 9.591119 1.388976
1305032353.118590 0.287374 9.830598 1.005810
1305032353.119589 0.287374 9.830598 1.005810
1305032353.120834 0.287374 9.830598 1.005810
1305032353.121964 0.287374 9.830598 1.005810
1305032353.125072 0.191583 9.926389 0.239479
1305032353.126219 0.191583 9.926389 0.239479
1305032353.129703 0.119739 10.213764 0.143687
1305032353.130698 0.119739 10.213764 0.143687
1305032353.133979 0.107765 10.501138 0.047896
1305032353.134943 0.107765 10.501138 0.047896
1305032353.136068 0.107765 10.501138 0.047896
1305032353.137224 0.107765 10.501138 0.047896
1305032353.140851 0.107765 10.309555 0.574749
1305032353.141974 0.107765 10.309555 0.574749
1305032353.145111 -0.191583 10.213764 1.005810
1305032353.146089 -0.191583 10.213764 1.005810
1305032353.149758 -0.083818 10.117972 0.981862
1305032353.150693 -0.083818 10.117972 0.981862
1305032353.153977 -0.191583 10.117972 1.388976
1305032353.154972 -0.191583 10.117972 1.388976
1305032353.158618 -0.275400 10.022181 1.341080
1305032353.159593 -0.275400 10.022181 1.341080
1305032353.160861 -0.275400 10.022181 1.341080
1305032353.161860 -0.275400 10.022181 1.341080
1305032353.165147 -0.275400 9.926389 1.580559
1305032353.166145 -0.275400 9.926389 1.580559
1305032353.169775 0.011974 10.022181 1.772142
1305032353.170709 0.011974 10.022181 1.772142
1305032353.173949 0.011974 9.926389 1.963725
1305032353.174971 0.011974 9.926389 1.963725
1305032353.178593 0.095791 9.926389 2.155308
1305032353.179617 0.095791 9.926389 2.155308
1305032353.180867 0.095791 9.926389 2.155308
1305032353.181852 0.095791 9.926389 2.155308
1305032353.185144 0.191583 9.926389 2.538474
1305032353.186144 0.191583 9.926389 2.538474
1305032353.189746 0.395140 9.830598 2.538474
1305032353.190728 0.395140 9.830598 2.538474
1305032353.193998 0.287374 10.022181 2.562421
1305032353.195034 0.287374 10.022181 2.562421
1305032353.196619 0.287374 10.022181 2.562421
1305032353.199760 0.478957 9.926389 2.538474
1305032353.200737 0.478957 9.926389 2.538474
1305032353.203960 0.107765 9.926389 2.203203
1305032353.204961 0.107765 9.926389 2.203203
1305032353.208632 0.191583 9.926389 1.772142
1305032353.209717 0.191583 9.926389 1.772142
1305032353.210971 0.191583 9.926389 1.772142
1305032353.212007 0.191583 9.926389 1.772142
1305032353.215123 0.107765 9.926389 1.293185
1305032353.216096 0.107765 9.926389 1.293185
1305032353.219776 0.083818 9.926389 0.957915
1305032353.220763 0.083818 9.926389 0.957915
1305032353.223856 0.095791 9.974285 0.981862
1305032353.225016 0.095791 9.974285 0.981862
1305032353.226476 0.095791 9.974285 0.981862
1305032353.227624 0.095791 9.974285 0.981862
1305032353.230900 0.143687 9.543224 1.005810
1305032353.231890 0.143687 9.543224 1.005810
1305032353.235107 0.107765 9.351641 1.197393
1305032353.236111 0.107765 9.351641 1.197393
1305032353.239637 -0.083818 9.543224 1.197393
1305032353.240730 -0.083818 9.543224 1.197393
1305032353.244020 -0.083818 9.543224 1.293185
1305032353.245034 -0.083818 9.543224 1.293185
1305032353.246485 -0.083818 9.543224 1.293185
1305032353.247677 -0.083818 9.543224 1.293185
1305032353.250909 -0.083818 9.567171 1.580559
1305032353.251896 -0.083818 9.567171 1.580559
1305032353.255158 0.107765 9.543224 1.772142
1305032353.256185 0.107765 9.543224 1.772142
1305032353.259817 0.478957 9.207953 1.963725
1305032353.260764 0.478957 9.207953 1.963725
1305032353.264042 0.574749 9.112162 2.251099
1305032353.265074 0.574749 9.112162 2.251099
1305032353.268663 0.862123 8.968475 2.730056
1305032353.269824 0.862123 8.968475 2.730056
1305032353.271015 0.862123 8.968475 2.730056
1305032353.272007 0.862123 8.968475 2.730056
1305032353.275157 0.957915 9.064266 2.730056
1305032353.276121 0.957915 9.064266 2.730056
1305032353.279650 1.053706 9.064266 2.442682
1305032353.280744 1.053706 9.064266 2.442682
1305032353.284074 1.053706 9.160058 2.059516
1305032353.285043 1.053706 9.160058 2.059516
1305032353.288655 1.053706 9.351641 1.867933
1305032353.289792 1.053706 9.351641 1.867933
1305032353.290902 1.053706 9.351641 1.867933
1305032353.292042 1.053706 9.351641 1.867933
1305032353.295557 0.957915 9.160058 1.005810
1305032353.298770 0.910019 9.160058 0.622644
1305032353.299820 0.910019 9.160058 0.622644
1305032353.301040 0.910019 9.160058 0.622644
1305032353.302176 0.910019 9.160058 0.622644
1305032353.305766 0.862123 9.543224 0.143687
1305032353.306762 0.862123 9.543224 0.143687
1305032353.310049 1.053706 9.639015 -0.335270
1305032353.311022 1.053706 9.639015 -0.335270
1305032353.314657 1.053706 9.926389 -0.526853
1305032353.315689 1.053706 9.926389 -0.526853
1305032353.318918 1.053706 10.117972 -0.478957
1305032353.319935 1.053706 10.117972 -0.478957
1305032353.321184 1.053706 10.117972 -0.478957
1305032353.322312 1.053706 10.117972 -0.478957
1305032353.325939 0.862123 10.501138 -0.239479
1305032353.326937 0.862123 10.501138 -0.239479
1305032353.330200 0.862123 10.644825 -0.143687
1305032353.331156 0.862123 10.644825 -0.143687
1305032353.334652 0.862123 10.501138 0.287374
1305032353.335779 0.862123 10.501138 0.287374
1305032353.339031 1.161471 10.309555 0.814227
1305032353.340023 1.161471 10.309555 0.814227
1305032353.341700 1.161471 10.309555 0.814227
1305032353.344973 1.257263 10.117972 1.436872
1305032353.345949 1.257263 10.117972 1.436872
1305032353.349055 1.592533 9.926389 2.131360
1305032353.350204 1.592533 9.926389 2.131360
1305032353.353827 1.628455 9.639015 2.538474
1305032353.354794 1.628455 9.639015 2.538474
1305032353.356059 1.628455 9.639015 2.538474
1305032353.357091 1.628455 9.639015 2.538474
1305032353.360083 1.640429 9.639015 2.538474
1305032353.361051 1.640429 9.639015 2.538474
1305032353.364687 1.640429 9.926389 2.346891
1305032353.365830 1.640429 9.926389 2.346891
1305032353.368980 1.592533 10.309555 2.059516
1305032353.370132 1.592533 10.309555 2.059516
1305032353.371174 1.592533 10.309555 2.059516
1305032353.372295 1.592533 10.309555 2.059516
1305032353.375927 1.448846 10.501138 1.580559
1305032353.376964 1.448846 10.501138 1.580559
1305032353.380217 1.448846 10.501138 1.053706
1305032353.381243 1.448846 10.501138 1.053706
1305032353.384851 1.293185 10.692721 0.526853
1305032353.385967 1.293185 10.692721 0.526853
1305032353.389096 1.209367 10.716669 0.239479
1305032353.390075 1.209367 10.716669 0.239479
1305032353.393722 1.257263 10.884304 -0.143687
1305032353.394679 1.257263 10.884304 -0.143687
1305032353.396000 1.257263 10.884304 -0.143687
1305032353.396976 1.257263 10.884304 -0.143687
1305032353.400264 1.257263 11.075887 -0.814227
1305032353.401244 1.257263 11.075887 -0.814227
1305032353.404799 1.161471 11.075887 -0.886071
1305032353.405809 1.161471 11.075887 -0.886071
1305032353.409127 1.245289 11.267470 -0.910019
1305032353.410108 1.245289 11.267470 -0.910019
1305032353.413885 1.448846 10.884304 -0.335270
1305032353.414837 1.448846 10.884304 -0.335270
1305032353.415966 1.448846 10.884304 -0.335270
1305032353.417087 1.448846 10.884304 -0.335270
1305032353.420090 0.910019 10.644825 0.239479
1305032353.421125 0.910019 10.644825 0.239479
1305032353.424852 0.850149 10.740617 0.622644
1305032353.425872 0.850149 10.740617 0.622644
1305032353.429142 0.574749 11.267470 0.910019
1305032353.430100 0.574749 11.267470 0.910019
1305032353.433749 0.682514 11.267470 1.005810
1305032353.434702 0.682514 11.267470 1.005810
1305032353.435954 0.682514 11.267470 1.005810
1305032353.436944 0.682514 11.267470 1.005810
1305032353.440243 0.862123 11.411157 2.059516
1305032353.441368 0.862123 11.411157 2.059516
1305032353.444997 0.862123 11.267470 2.526500
1305032353.446010 0.862123 11.267470 2.526500
1305032353.449155 1.257263 11.267470 2.730056
1305032353.450105 1.257263 11.267470 2.730056
1305032353.453750 1.257263 11.171678 2.825848
1305032353.454713 1.257263 11.171678 2.825848
1305032353.455985 1.257263 11.171678 2.825848
1305032353.456988 1.257263 11.171678 2.825848
1305032353.460233 1.053706 11.363261 2.538474
1305032353.461255 1.053706 11.363261 2.538474
1305032353.464763 0.957915 11.650635 2.346891
1305032353.465851 0.957915 11.650635 2.346891
1305032353.468990 0.862123 11.650635 2.107412
1305032353.470134 0.862123 11.650635 2.107412
1305032353.473754 0.862123 11.650635 1.772142
1305032353.474860 0.862123 11.650635 1.772142
1305032353.475844 0.862123 11.650635 1.772142
1305032353.479152 0.778306 11.267470 1.388976
1305032353.480264 0.778306 11.267470 1.388976
1305032353.483777 0.682514 11.123782 1.197393
1305032353.484747 0.682514 11.123782 1.197393
1305032353.486002 0.682514 11.123782 1.197393
1305032353.487150 0.682514 11.123782 1.197393
1305032353.490268 0.862123 11.075887 1.005810
1305032353.491269 0.862123 11.075887 1.005810
1305032353.494734 0.682514 11.171678 1.029758
1305032353.495782 0.682514 11.171678 1.029758
1305032353.499069 0.478957 11.363261 1.101602
1305032353.500029 0.478957 11.363261 1.101602
1305032353.501273 0.478957 11.363261 1.101602
1305032353.502404 0.478957 11.363261 1.101602
1305032353.505875 0.502905 11.075887 0.981862
1305032353.506893 0.502905 11.075887 0.981862
1305032353.510162 0.466983 11.027991 1.005810
1305032353.511137 0.466983 11.027991 1.005810
1305032353.514792 0.478957 10.596929 1.197393
1305032353.515786 0.478957 10.596929 1.197393
1305032353.519058 0.502905 10.405347 1.484768
1305032353.520053 0.502905 10.405347 1.484768
1305032353.521285 0.502905 10.405347 1.484768
1305032353.522412 0.502905 10.405347 1.484768
1305032353.526033 0.778306 10.117972 1.772142
1305032353.527075 0.778306 10.117972 1.772142
1305032353.530276 0.682514 9.926389 2.059516
1305032353.531291 0.682514 9.926389 2.059516
1305032353.534907 0.862123 9.926389 2.155308
1305032353.535919 0.862123 9.926389 2.155308
1305032353.539009 0.862123 9.926389 2.155308
1305032353.540126 0.862123 9.926389 2.155308
1305032353.541253 0.862123 9.926389 2.155308
1305032353.542750 0.862123 9.926389 2.155308
1305032353.546042 0.682514 9.555197 2.059516
1305032353.547049 0.682514 9.555197 2.059516
1305032353.550332 0.778306 9.639015 1.963725
1305032353.551298 0.778306 9.639015 1.963725
1305032353.554912 0.862123 9.555197 1.772142
1305032353.555938 0.862123 9.555197 1.772142
1305032353.559226 0.862123 9.734806 1.796090
1305032353.560190 0.862123 9.734806 1.796090
1305032353.561415 0.862123 9.734806 1.796090
1305032353.562779 0.862123 9.734806 1.796090
1305032353.566043 0.778306 9.926389 1.580559
1305032353.567089 0.778306 9.926389 1.580559
1305032353.570319 0.850149 9.914415 1.197393
1305032353.571264 0.850149 9.914415 1.197393
1305032353.574926 0.682514 10.022181 1.005810
1305032353.575892 0.682514 10.022181 1.005810
1305032353.579173 0.778306 10.117972 0.814227
1305032353.580190 0.778306 10.117972 0.814227
1305032353.583861 0.862123 10.309555 1.005810
1305032353.584799 0.862123 10.309555 1.005810
1305032353.586040 0.862123 10.309555 1.005810
1305032353.587194 0.862123 10.309555 1.005810
1305032353.590322 0.682514 10.405347 1.293185
1305032353.591318 0.682514 10.405347 1.293185
1305032353.594935 0.574749 10.309555 1.197393
1305032353.595947 0.574749 10.309555 1.197393
1305032353.599215 0.682514 10.405347 1.676350
1305032353.600361 0.682514 10.405347 1.676350
1305032353.603815 0.826201 10.596929 1.820038
1305032353.604783 0.826201 10.596929 1.820038
1305032353.606022 0.826201 10.596929 1.820038
1305032353.607198 0.826201 10.596929 1.820038
1305032353.610338 0.862123 10.596929 1.820038
1305032353.611290 0.862123 10.596929 1.820038
1305032353.614826 0.862123 10.596929 1.963725
1305032353.615956 0.862123 10.596929 1.963725
1305032353.619077 0.910019 10.596929 1.748194
1305032353.620066 0.910019 10.596929 1.748194
1305032353.621342 0.910019 10.596929 1.748194
1305032353.622471 0.910019 10.596929 1.748194
1305032353.625945 0.682514 10.501138 1.676350
1305032353.626914 0.682514 10.501138 1.676350
1305032353.630254 0.682514 10.501138 1.484768
1305032353.631197 0.682514 10.501138 1.484768
1305032353.634800 0.526853 10.501138 1.388976
1305032353.635849 0.526853 10.501138 1.388976
1305032353.639089 0.574749 10.501138 1.772142
1305032353.640174 0.574749 10.501138 1.772142
1305032353.641298 0.574749 10.501138 1.772142
1305032353.642788 0.574749 10.501138 1.772142
1305032353.646099 0.526853 10.309555 1.867933
1305032353.647094 0.526853 10.309555 1.867933
1305032353.650381 0.778306 10.117972 2.155308
1305032353.651346 0.778306 10.117972 2.155308
1305032353.654945 0.957915 10.117972 2.346891
1305032353.655961 0.957915 10.117972 2.346891
1305032353.659241 0.957915 10.117972 2.490578
1305032353.660216 0.957915 10.117972 2.490578
1305032353.663856 0.957915 9.926389 2.730056
1305032353.664837 0.957915 9.926389 2.730056
1305032353.666265 0.957915 9.926389 2.730056
1305032353.667238 0.957915 9.926389 2.730056
1305032353.670358 0.862123 9.926389 2.969535
1305032353.671320 0.862123 9.926389 2.969535
1305032353.674852 1.053706 9.914415 2.921639
1305032353.675972 1.053706 9.914415 2.921639
1305032353.679094 0.957915 9.926389 2.634265
1305032353.680237 0.957915 9.926389 2.634265
1305032353.681355 0.957915 9.926389 2.634265
1305032353.682501 0.957915 9.926389 2.634265
1305032353.685973 1.053706 9.830598 2.730056
1305032353.687141 1.053706 9.830598 2.730056
1305032353.690284 0.957915 9.567171 2.346891
1305032353.691367 0.957915 9.567171 2.346891
1305032353.694860 1.161471 9.531250 2.346891
1305032353.695897 1.161471 9.531250 2.346891
1305032353.699246 1.053706 9.351641 1.963725
1305032353.700258 1.053706 9.351641 1.963725
1305032353.701360 1.053706 9.351641 1.963725
1305032353.702708 1.053706 9.351641 1.963725
1305032353.706087 1.053706 9.160058 1.676350
1305032353.707366 1.053706 9.160058 1.676350
1305032353.710381 0.862123 9.447432 1.388976
1305032353.711338 0.862123 9.447432 1.388976
1305032353.714993 0.862123 9.351641 1.017784
1305032353.715965 0.862123 9.351641 1.017784
1305032353.719259 0.862123 9.351641 1.101602
1305032353.720258 0.862123 9.351641 1.101602
1305032353.723851 0.778306 9.495328 1.197393
1305032353.724863 0.778306 9.495328 1.197393
1305032353.726010 0.778306 9.495328 1.197393
1305032353.729301 0.862123 9.495328 1.580559
1305032353.730425 0.862123 9.495328 1.580559
1305032353.734214 0.850149 9.531250 1.963725
1305032353.735104 0.850149 9.531250 1.963725
1305032353.736148 0.850149 9.531250 1.963725
1305032353.739235 0.862123 9.351641 2.346891
1305032353.740230 0.862123 9.351641 2.346891
1305032353.743984 0.862123 9.519276 2.921639
1305032353.744978 0.862123 9.519276 2.921639
1305032353.746340 0.862123 9.519276 2.921639
1305032353.747251 0.862123 9.519276 2.921639
1305032353.750560 0.862123 9.351641 3.316779
1305032353.753911 0.862123 9.519276 3.209014
1305032353.754890 0.862123 9.519276 3.209014
1305032353.756132 0.862123 9.519276 3.209014
1305032353.757107 0.862123 9.519276 3.209014
1305032353.760264 0.862123 9.543224 3.304805
1305032353.761286 0.862123 9.543224 3.304805
1305032353.764868 0.862123 9.878494 3.304805
1305032353.766031 0.862123 9.878494 3.304805
1305032353.769156 0.778306 9.734806 3.017431
1305032353.770282 0.778306 9.734806 3.017431
1305032353.771390 0.778306 9.734806 3.017431
1305032353.772390 0.778306 9.734806 3.017431
1305032353.776008 0.682514 9.639015 2.969535
1305032353.777035 0.682514 9.639015 2.969535
1305032353.780270 0.682514 9.734806 2.730056
1305032353.781283 0.682514 9.734806 2.730056
1305032353.784878 0.778306 9.734806 2.586369
1305032353.786045 0.778306 9.734806 2.586369
1305032353.789166 0.862123 9.351641 2.634265
1305032353.790292 0.862123 9.351641 2.634265
1305032353.791398 0.862123 9.351641 2.634265
1305032353.792554 0.862123 9.351641 2.634265
1305032353.796037 0.862123 9.172032 2.442682
1305032353.797027 0.862123 9.172032 2.442682
1305032353.800459 0.862123 9.172032 2.155308
1305032353.801420 0.862123 9.172032 2.155308
1305032353.804893 0.526853 9.160058 2.155308
1305032353.805997 0.526853 9.160058 2.155308
1305032353.809172 0.478957 9.160058 1.963725
1305032353.810293 0.478957 9.160058 1.963725
1305032353.813940 0.287374 9.555197 1.580559
1305032353.814903 0.287374 9.555197 1.580559
1305032353.816183 0.287374 9.555197 1.580559
1305032353.817135 0.287374 9.555197 1.580559
1305032353.820431 0.107765 9.902441 1.388976
1305032353.821431 0.107765 9.902441 1.388976
1305032353.824909 0.107765 10.022181 1.365028
1305032353.826072 0.107765 10.022181 1.365028
1305032353.829195 0.287374 10.309555 1.197393
1305032353.830314 0.287374 10.309555 1.197393
1305032353.831564 0.287374 10.309555 1.197393
1305032353.832760 0.287374 10.309555 1.197393
1305032353.836190 0.107765 10.501138 1.293185
1305032353.837202 0.107765 10.501138 1.293185
1305032353.840275 0.107765 10.357451 1.484768
1305032353.841401 0.107765 10.357451 1.484768
1305032353.844927 0.287374 10.309555 1.484768
1305032353.846072 0.287374 10.309555 1.484768
1305032353.849335 0.107765 10.309555 2.131360
1305032353.850307 0.107765 10.309555 2.131360
1305032353.853984 0.143687 10.117972 2.251099
1305032353.855066 0.143687 10.117972 2.251099
1305032353.856041 0.143687 10.117972 2.251099
1305032353.859470 0.287374 9.926389 2.730056
1305032353.860489 0.287374 9.926389 2.730056
1305032353.863964 0.287374 9.926389 2.921639
1305032353.864913 0.287374 9.926389 2.921639
1305032353.866314 0.287374 9.926389 2.921639
1305032353.867326 0.287374 9.926389 2.921639
1305032353.870494 0.287374 9.878494 3.304805
1305032353.871426 0.287374 9.878494 3.304805
1305032353.875046 0.287374 9.734806 3.352701
1305032353.876072 0.287374 9.734806 3.352701
1305032353.879311 0.191583 9.830598 3.400597
1305032353.880292 0.191583 9.830598 3.400597
1305032353.881912 0.191583 9.830598 3.400597
1305032353.885057 0.443035 9.830598 3.256909
1305032353.886061 0.443035 9.830598 3.256909
1305032353.889308 0.287374 9.591119 3.113222
1305032353.890308 0.287374 9.591119 3.113222
1305032353.895057 0.478957 9.639015 2.921639
1305032353.895926 0.478957 9.639015 2.921639
1305032353.896930 0.478957 9.639015 2.921639
1305032353.900215 0.287374 9.639015 2.586369
1305032353.901254 0.287374 9.639015 2.586369
1305032353.905457 0.191583 9.591119 2.131360
1305032353.906293 0.191583 9.591119 2.131360
1305032353.907312 0.191583 9.591119 2.131360
1305032353.910447 0.095791 9.902441 1.580559
1305032353.911428 0.095791 9.902441 1.580559
1305032353.915208 0.143687 9.734806 1.005810
1305032353.916198 0.143687 9.734806 1.005810
1305032353.919329 0.011974 10.117972 0.814227
1305032353.920339 0.011974 10.117972 0.814227
1305032353.923999 0.095791 10.297581 0.910019
1305032353.924944 0.095791 10.297581 0.910019
1305032353.926206 0.095791 10.297581 0.910019
1305032353.927193 0.095791 10.297581 0.910019
1305032353.930449 -0.083818 10.309555 0.814227
1305032353.931454 -0.083818 10.309555 0.814227
1305032353.934964 -0.083818 10.213764 0.814227
1305032353.935968 -0.083818 10.213764 0.814227
1305032353.939222 0.095791 10.117972 1.005810
1305032353.940202 0.095791 10.117972 1.005810
1305032353.941451 0.095791 10.117972 1.005810
1305032353.942579 0.095791 10.117972 1.005810
1305032353.946216 0.107765 9.926389 1.676350
1305032353.947210 0.107765 9.926389 1.676350
1305032353.950474 0.143687 9.734806 2.155308
1305032353.951476 0.143687 9.734806 2.155308
1305032353.955108 0.191583 9.543224 2.586369
1305032353.956096 0.191583 9.543224 2.586369
1305032353.959358 0.466983 9.495328 2.933613
1305032353.960342 0.466983 9.495328 2.933613
1305032353.964009 0.526853 9.351641 3.113222
1305032353.965035 0.526853 9.351641 3.113222
1305032353.966228 0.526853 9.351641 3.113222
1305032353.967339 0.526853 9.351641 3.113222
1305032353.970499 0.478957 9.351641 3.496388
1305032353.971474 0.478957 9.351641 3.496388
1305032353.975129 0.526853 9.351641 3.209014
1305032353.976127 0.526853 9.351641 3.209014
1305032353.979357 0.574749 9.543224 3.017431
1305032353.980356 0.574749 9.543224 3.017431
1305032353.984024 0.490931 9.543224 2.586369
1305032353.984973 0.490931 9.543224 2.586369
1305032353.986234 0.490931 9.543224 2.586369
1305032353.987350 0.490931 9.543224 2.586369
1305032353.990497 0.191583 9.878494 2.155308
1305032353.991501 0.191583 9.878494 2.155308
1305032353.995111 0.443035 9.734806 1.580559
1305032353.996238 0.443035 9.734806 1.580559
1305032353.999366 0.287374 9.734806 1.293185
1305032354.000383 0.287374 9.734806 1.293185
1305032354.004157 0.287374 9.734806 0.622644
1305032354.005118 0.287374 9.734806 0.622644
1305032354.006372 0.287374 9.734806 0.622644
1305032354.007368 0.287374 9.734806 0.622644
1305032354.010501 0.191583 9.926389 -0.143687
1305032354.011472 0.191583 9.926389 -0.143687
1305032354.015250 0.107765 10.213764 -0.431062
1305032354.016268 0.107765 10.213764 -0.431062
1305032354.019384 0.011974 10.309555 -0.622644
1305032354.020399 0.011974 10.309555 -0.622644
1305032354.024037 -0.083818 10.692721 -0.622644
1305032354.024983 -0.083818 10.692721 -0.622644
1305032354.026236 -0.083818 10.692721 -0.622644
1305032354.027235 -0.083818 10.692721 -0.622644
1305032354.030502 -0.275400 11.027991 -0.143687
1305032354.031511 -0.275400 11.027991 -0.143687
1305032354.035020 -0.275400 10.884304 -0.047896
1305032354.036129 -0.275400 10.884304 -0.047896
1305032354.039391 -0.239479 10.884304 0.431062
1305032354.040385 -0.239479 10.884304 0.431062
1305032354.042008 -0.239479 10.884304 0.431062
1305032354.045136 0.011974 10.692721 0.910019
1305032354.046246 0.011974 10.692721 0.910019
1305032354.049397 -0.191583 10.704695 1.388976
1305032354.050407 -0.191583 10.704695 1.388976
1305032354.054151 -0.191583 10.716669 1.772142
1305032354.055143 -0.191583 10.716669 1.772142
1305032354.056393 -0.191583 10.716669 1.772142
1305032354.057373 -0.191583 10.716669 1.772142
1305032354.060392 -0.191583 10.692721 2.155308
1305032354.061519 -0.191583 10.692721 2.155308
1305032354.065161 -0.083818 10.501138 2.346891
1305032354.066145 -0.083818 10.501138 2.346891
1305032354.069443 0.083818 10.333503 2.538474
1305032354.070387 0.083818 10.333503 2.538474
1305032354.074034 0.059870 10.309555 2.490578
1305032354.075013 0.059870 10.309555 2.490578
1305032354.076261 0.059870 10.309555 2.490578
1305032354.077255 0.059870 10.309555 2.490578
1305032354.080416 0.011974 10.309555 2.346891
1305032354.081507 0.011974 10.309555 2.346891
1305032354.085035 -0.083818 10.309555 2.251099
1305032354.086170 -0.083818 10.309555 2.251099
1305032354.089412 -0.083818 10.309555 1.963725
1305032354.090397 -0.083818 10.309555 1.963725
1305032354.094042 -0.239479 10.644825 1.772142
1305032354.095020 -0.239479 10.644825 1.772142
1305032354.096284 -0.239479 10.644825 1.772142
1305032354.097290 -0.239479 10.644825 1.772142
1305032354.100612 -0.275400 10.716669 1.388976
1305032354.101521 -0.275400 10.716669 1.388976
1305032354.105182 -0.574749 11.063913 1.053706
1305032354.106168 -0.574749 11.063913 1.053706
1305032354.109419 -0.478957 11.171678 0.718436
1305032354.110417 -0.478957 11.171678 0.718436
1305032354.114092 -0.574749 11.459053 0.574749
1305032354.115035 -0.574749 11.459053 0.574749
1305032354.116314 -0.574749 11.459053 0.574749
1305032354.117291 -0.574749 11.459053 0.574749
1305032354.120595 -0.478957 11.746427 0.239479
1305032354.121552 -0.478957 11.746427 0.239479
1305032354.125035 -0.658566 11.650635 -0.143687
1305032354.126177 -0.658566 11.650635 -0.143687
1305032354.129301 -0.658566 11.746427 -0.143687
1305032354.130303 -0.658566 11.746427 -0.143687
1305032354.132343 -0.658566 11.746427 -0.143687
1305032354.135055 -0.658566 11.554844 -0.095791
1305032354.136076 -0.658566 11.554844 -0.095791
1305032354.139320 -0.574749 11.459053 -0.335270
1305032354.140303 -0.574749 11.459053 -0.335270
1305032354.141552 -0.574749 11.459053 -0.335270
1305032354.142681 -0.574749 11.459053 -0.335270
1305032354.146329 -0.658566 10.884304 -0.143687
1305032354.147307 -0.658566 10.884304 -0.143687
1305032354.150610 -0.478957 10.596929 -0.431062
1305032354.151576 -0.478957 10.596929 -0.431062
1305032354.155207 -0.478957 10.405347 -0.143687
1305032354.156314 -0.478957 10.405347 -0.143687
1305032354.159447 -0.275400 10.309555 0.191583
1305032354.160441 -0.275400 10.309555 0.191583
1305032354.164105 0.083818 10.117972 0.239479
1305032354.165065 0.083818 10.117972 0.239479
1305032354.166076 0.083818 10.117972 0.239479
1305032354.169488 0.191583 9.926389 0.239479
1305032354.170489 0.191583 9.926389 0.239479
1305032354.172079 0.191583 9.926389 0.239479
1305032354.175186 0.287374 9.734806 0.431062
1305032354.176181 0.287374 9.734806 0.431062
1305032354.179461 0.191583 9.543224 0.574749
1305032354.180457 0.191583 9.543224 0.574749
1305032354.184102 0.443035 9.255849 0.598697
1305032354.185092 0.443035 9.255849 0.598697
1305032354.186339 0.443035 9.255849 0.598697
1305032354.187349 0.443035 9.255849 0.598697
1305032354.190613 0.443035 9.160058 0.718436
1305032354.191616 0.443035 9.160058 0.718436
1305032354.195213 0.287374 9.064266 0.431062
1305032354.196208 0.287374 9.064266 0.431062
1305032354.199464 0.191583 8.968475 0.239479
1305032354.200478 0.191583 8.968475 0.239479
1305032354.202103 0.191583 8.968475 0.239479
1305032354.205146 0.095791 9.160058 -0.047896
1305032354.206217 0.095791 9.160058 -0.047896
1305032354.209342 0.107765 9.351641 -0.143687
1305032354.210465 0.107765 9.351641 -0.143687
1305032354.212098 0.107765 9.351641 -0.143687
1305032354.215259 -0.083818 9.567171 -0.167635
1305032354.216235 -0.083818 9.567171 -0.167635
1305032354.219533 -0.083818 9.926389 -0.526853
1305032354.220491 -0.083818 9.926389 -0.526853
1305032354.224255 -0.083818 10.117972 -0.814227
1305032354.225324 -0.083818 10.117972 -0.814227
1305032354.226481 -0.083818 10.117972 -0.814227
1305032354.227474 -0.083818 10.117972 -0.814227
1305032354.230605 0.011974 10.213764 -1.101602
1305032354.231616 0.011974 10.213764 -1.101602
1305032354.235243 0.095791 10.297581 -0.957915
1305032354.236251 0.095791 10.297581 -0.957915
1305032354.239486 0.095791 10.117972 -1.293185
1305032354.240478 0.095791 10.117972 -1.293185
1305032354.244149 -0.083818 9.926389 -1.293185
1305032354.245096 -0.083818 9.926389 -1.293185
1305032354.246359 -0.083818 9.926389 -1.293185
1305032354.247361 -0.083818 9.926389 -1.293185
1305032354.250649 0.095791 9.734806 -1.484768
1305032354.251610 0.095791 9.734806 -1.484768
1305032354.255255 0.011974 9.591119 -1.388976
1305032354.256258 0.011974 9.591119 -1.388976
1305032354.259496 0.095791 9.495328 -1.580559
1305032354.260528 0.095791 9.495328 -1.580559
1305032354.264161 0.107765 9.543224 -1.293185
1305032354.265233 0.107765 9.543224 -1.293185
1305032354.266523 0.107765 9.543224 -1.293185
1305032354.267481 0.107765 9.543224 -1.293185
1305032354.270626 0.011974 9.351641 -1.293185
1305032354.271622 0.011974 9.351641 -1.293185
1305032354.275236 0.095791 9.351641 -1.101602
1305032354.276231 0.095791 9.351641 -1.101602
1305032354.279510 0.107765 9.351641 -0.886071
1305032354.280502 0.107765 9.351641 -0.886071
1305032354.284148 0.011974 9.543224 -0.538827
1305032354.285139 0.011974 9.543224 -0.538827
1305032354.286387 0.011974 9.543224 -0.538827
1305032354.287519 0.011974 9.543224 -0.538827
1305032354.290645 0.107765 9.543224 -0.526853
1305032354.291662 0.107765 9.543224 -0.526853
1305032354.295124 0.287374 9.555197 -0.335270
1305032354.296258 0.287374 9.555197 -0.335270
1305032354.299392 0.143687 9.830598 -0.143687
1305032354.300548 0.143687 9.830598 -0.143687
1305032354.301644 0.143687 9.830598 -0.143687
1305032354.303132 0.143687 9.830598 -0.143687
1305032354.306404 0.107765 9.830598 -0.143687
1305032354.307386 0.107765 9.830598 -0.143687
1305032354.310542 0.059870 9.734806 -0.095791
1305032354.311671 0.059870 9.734806 -0.095791
1305032354.315156 0.011974 9.639015 0.047896
1305032354.316158 0.011974 9.639015 0.047896
1305032354.319389 -0.083818 9.830598 -0.143687
1305032354.320369 -0.083818 9.830598 -0.143687
1305032354.321673 -0.083818 9.830598 -0.143687
1305032354.322658 -0.083818 9.830598 -0.143687
1305032354.326267 0.011974 9.734806 -0.526853
1305032354.327399 0.011974 9.734806 -0.526853
1305032354.330653 -0.083818 9.926389 -0.814227
1305032354.331656 -0.083818 9.926389 -0.814227
1305032354.335297 -0.083818 9.734806 -1.101602
1305032354.336286 -0.083818 9.734806 -1.101602
1305032354.339534 -0.083818 9.734806 -1.101602
1305032354.340531 -0.083818 9.734806 -1.101602
1305032354.344169 -0.263426 9.830598 -1.101602
1305032354.345145 -0.263426 9.830598 -1.101602
1305032354.346413 -0.263426 9.830598 -1.101602
1305032354.347535 -0.263426 9.830598 -1.101602
1305032354.350704 -0.275400 9.734806 -1.484768
1305032354.351672 -0.275400 9.734806 -1.484768
1305032354.355300 -0.275400 9.543224 -1.484768
1305032354.356328 -0.275400 9.543224 -1.484768
1305032354.359553 -0.275400 9.555197 -1.580559
1305032354.360541 -0.275400 9.555197 -1.580559
1305032354.364180 -0.371192 9.531250 -1.293185
1305032354.365182 -0.371192 9.531250 -1.293185
1305032354.366450 -0.371192 9.531250 -1.293185
1305032354.367544 -0.371192 9.531250 -1.293185
1305032354.370742 -0.478957 9.531250 -0.910019
1305032354.371675 -0.478957 9.531250 -0.910019
1305032354.375303 -0.323296 9.351641 -0.933967
1305032354.376299 -0.323296 9.351641 -0.933967
1305032354.379534 -0.275400 9.351641 -0.718436
1305032354.380617 -0.275400 9.351641 -0.718436
1305032354.384181 -0.275400 9.351641 -0.526853
1305032354.385179 -0.275400 9.351641 -0.526853
1305032354.386430 -0.275400 9.351641 -0.526853
1305032354.387552 -0.275400 9.351641 -0.526853
1305032354.390670 -0.083818 9.255849 -0.335270
1305032354.391711 -0.083818 9.255849 -0.335270
1305032354.395313 -0.191583 9.160058 -0.119739
1305032354.396297 -0.191583 9.160058 -0.119739
1305032354.399440 -0.275400 9.136110 0.047896
1305032354.400598 -0.275400 9.136110 0.047896
1305032354.401694 -0.275400 9.136110 0.047896
1305032354.403192 -0.275400 9.136110 0.047896
1305032354.406332 -0.275400 9.064266 0.047896
1305032354.407449 -0.275400 9.064266 0.047896
1305032354.410697 -0.275400 9.160058 0.239479
1305032354.411675 -0.275400 9.160058 0.239479
1305032354.415325 -0.478957 9.160058 0.239479
1305032354.416191 -0.478957 9.160058 0.239479
1305032354.419448 -0.371192 9.255849 0.047896
1305032354.420460 -0.371192 9.255849 0.047896
1305032354.421726 -0.371192 9.255849 0.047896
1305032354.422710 -0.371192 9.255849 0.047896
1305032354.426331 -0.191583 9.255849 -0.335270
1305032354.427338 -0.191583 9.255849 -0.335270
1305032354.430573 -0.191583 9.447432 -0.155661
1305032354.431580 -0.191583 9.447432 -0.155661
1305032354.435324 -0.275400 9.543224 -0.526853
1305032354.436209 -0.275400 9.543224 -0.526853
1305032354.439590 -0.323296 9.543224 -0.886071
1305032354.440578 -0.323296 9.543224 -0.886071
1305032354.441826 -0.323296 9.543224 -0.886071
1305032354.443188 -0.323296 9.543224 -0.886071
1305032354.446451 -0.658566 9.639015 -0.957915
1305032354.447435 -0.658566 9.639015 -0.957915
1305032354.450763 -0.646592 9.734806 -0.910019
1305032354.451738 -0.646592 9.734806 -0.910019
1305032354.455331 -0.574749 9.734806 -1.005810
1305032354.456353 -0.574749 9.734806 -1.005810
1305032354.459593 -0.754358 9.734806 -0.910019
1305032354.460591 -0.754358 9.734806 -0.910019
1305032354.464244 -0.670540 9.543224 -0.910019
1305032354.465209 -0.670540 9.543224 -0.910019
1305032354.466468 -0.670540 9.543224 -0.910019
1305032354.467459 -0.670540 9.543224 -0.910019
1305032354.470588 -0.478957 9.447432 -0.886071
1305032354.471706 -0.478957 9.447432 -0.886071
1305032354.475357 -0.299348 9.351641 -0.622644
1305032354.476346 -0.299348 9.351641 -0.622644
1305032354.479587 -0.478957 9.351641 -0.502905
1305032354.480584 -0.478957 9.351641 -0.502905
1305032354.484250 -0.275400 9.160058 -0.478957
1305032354.485308 -0.275400 9.160058 -0.478957
1305032354.486271 -0.275400 9.160058 -0.478957
1305032354.489530 -0.275400 9.160058 -0.047896
1305032354.490644 -0.275400 9.160058 -0.047896
1305032354.491889 -0.275400 9.160058 -0.047896
1305032354.492845 -0.275400 9.160058 -0.047896
1305032354.496349 -0.287374 8.968475 -0.143687
1305032354.497334 -0.287374 8.968475 -0.143687
1305032354.500647 -0.478957 8.968475 0.191583
1305032354.501603 -0.478957 8.968475 0.191583
1305032354.505251 -0.478957 8.968475 0.191583
1305032354.506242 -0.478957 8.968475 0.191583
1305032354.507221 -0.478957 8.968475 0.191583
1305032354.510622 -0.287374 9.160058 0.047896
1305032354.511598 -0.287374 9.160058 0.047896
1305032354.514631 -0.323296 9.160058 -0.143687
1305032354.515632 -0.323296 9.160058 -0.143687
1305032354.519263 -0.275400 9.160058 -0.335270
1305032354.520250 -0.275400 9.160058 -0.335270
1305032354.521499 -0.275400 9.160058 -0.335270
1305032354.522517 -0.275400 9.160058 -0.335270
1305032354.525742 -0.574749 9.172032 -0.718436
1305032354.526732 -0.574749 9.172032 -0.718436
1305032354.530502 -0.574749 9.207953 -1.317132
1305032354.531498 -0.574749 9.207953 -1.317132
1305032354.534751 -0.478957 9.255849 -1.484768
1305032354.535739 -0.478957 9.255849 -1.484768
1305032354.536749 -0.478957 9.255849 -1.484768
1305032354.540425 -0.850149 9.255849 -1.772142
1305032354.541379 -0.850149 9.255849 -1.772142
1305032354.544632 -0.850149 9.351641 -2.011621
1305032354.545751 -0.850149 9.351641 -2.011621
1305032354.549266 -0.682514 9.447432 -2.059516
1305032354.550291 -0.682514 9.447432 -2.059516
1305032354.551247 -0.682514 9.447432 -2.059516
1305032354.554664 -0.658566 9.543224 -2.059516
1305032354.555630 -0.658566 9.543224 -2.059516
1305032354.559254 -0.478957 9.543224 -2.107412
1305032354.560261 -0.478957 9.543224 -2.107412
1305032354.561508 -0.478957 9.543224 -2.107412
1305032354.562518 -0.478957 9.543224 -2.107412
1305032354.565659 -0.658566 9.495328 -2.059516
1305032354.566784 -0.658566 9.495328 -2.059516
1305032354.570428 -0.646592 9.160058 -1.867933
1305032354.571401 -0.646592 9.160058 -1.867933
1305032354.574649 -0.478957 8.872683 -1.772142
1305032354.575645 -0.478957 8.872683 -1.772142
1305032354.579264 -0.275400 8.776892 -1.628455
1305032354.580274 -0.275400 8.776892 -1.628455
1305032354.581526 -0.275400 8.776892 -1.628455
1305032354.582531 -0.275400 8.776892 -1.628455
1305032354.585666 -0.191583 8.393726 -1.676350
1305032354.586776 -0.191583 8.393726 -1.676350
1305032354.590451 0.011974 8.202143 -1.772142
1305032354.591415 0.011974 8.202143 -1.772142
1305032354.594661 -0.083818 8.106352 -1.688324
1305032354.595654 -0.083818 8.106352 -1.688324
1305032354.599274 -0.275400 8.010560 -1.676350
1305032354.600311 -0.275400 8.010560 -1.676350
1305032354.601224 -0.275400 8.010560 -1.676350
1305032354.604704 -0.263426 8.202143 -1.772142
1305032354.605658 -0.263426 8.202143 -1.772142
1305032354.609279 -0.371192 8.345830 -2.047542
1305032354.610291 -0.371192 8.345830 -2.047542
1305032354.611537 -0.371192 8.345830 -2.047542
1305032354.612540 -0.371192 8.345830 -2.047542
1305032354.615807 -0.275400 8.393726 -2.251099
1305032354.616802 -0.275400 8.393726 -2.251099
1305032354.620427 -0.275400 8.776892 -2.251099
1305032354.621419 -0.275400 8.776892 -2.251099
1305032354.624705 0.083818 8.776892 -2.466630
1305032354.625666 0.083818 8.776892 -2.466630
1305032354.629301 -0.083818 8.968475 -2.801900
1305032354.630424 -0.083818 8.968475 -2.801900
1305032354.631543 -0.083818 8.968475 -2.801900
1305032354.632691 -0.083818 8.968475 -2.801900
1305032354.635806 -0.239479 9.064266 -2.634265
1305032354.636788 -0.239479 9.064266 -2.634265
1305032354.640440 -0.191583 9.064266 -2.825848
1305032354.641424 -0.191583 9.064266 -2.825848
1305032354.644557 -0.275400 9.160058 -2.825848
1305032354.645683 -0.275400 9.160058 -2.825848
1305032354.648820 -0.287374 9.172032 -2.825848
1305032354.649940 -0.287374 9.172032 -2.825848
1305032354.651591 -0.287374 9.172032 -2.825848
1305032354.652588 -0.287374 9.172032 -2.825848
1305032354.655812 -0.263426 8.968475 -3.017431
1305032354.656803 -0.263426 8.968475 -3.017431
1305032354.660451 -0.191583 8.872683 -2.777952
1305032354.661436 -0.191583 8.872683 -2.777952
1305032354.664731 -0.083818 8.776892 -2.634265
1305032354.665697 -0.083818 8.776892 -2.634265
1305032354.669331 0.095791 8.681100 -2.825848
1305032354.670474 0.095791 8.681100 -2.825848
1305032354.671577 0.095791 8.681100 -2.825848
1305032354.672697 0.095791 8.681100 -2.825848
1305032354.675804 0.143687 8.585309 -2.825848
1305032354.676809 0.143687 8.585309 -2.825848
1305032354.680459 0.443035 8.393726 -2.730056
1305032354.681451 0.443035 8.393726 -2.730056
1305032354.684616 0.287374 8.585309 -2.730056
1305032354.685716 0.287374 8.585309 -2.730056
1305032354.689211 0.287374 8.393726 -2.801900
1305032354.690345 0.287374 8.393726 -2.801900
1305032354.691607 0.287374 8.393726 -2.801900
1305032354.692592 0.287374 8.393726 -2.801900
1305032354.695835 0.107765 8.681100 -3.113222
1305032354.696816 0.107765 8.681100 -3.113222
1305032354.700490 0.107765 8.585309 -3.209014
1305032354.701480 0.107765 8.585309 -3.209014
1305032354.704720 -0.083818 8.585309 -3.400597
1305032354.705709 -0.083818 8.585309 -3.400597
1305032354.709327 -0.239479 8.681100 -3.304805
1305032354.710328 -0.239479 8.681100 -3.304805
1305032354.711589 -0.239479 8.681100 -3.304805
1305032354.712593 -0.239479 8.681100 -3.304805
1305032354.715846 -0.299348 8.776892 -3.783762
1305032354.716976 -0.299348 8.776892 -3.783762
1305032354.720601 -0.275400 8.776892 -3.987319
1305032354.721594 -0.275400 8.776892 -3.987319
1305032354.724751 -0.263426 8.968475 -4.071137
1305032354.725721 -0.263426 8.968475 -4.071137
1305032354.729347 -0.275400 9.160058 -3.975345
1305032354.730348 -0.275400 9.160058 -3.975345
1305032354.731601 -0.275400 9.160058 -3.975345
1305032354.732615 -0.275400 9.160058 -3.975345
1305032354.735875 -0.083818 8.968475 -3.951397
1305032354.736893 -0.083818 8.968475 -3.951397
1305032354.740489 -0.083818 8.776892 -3.783762
1305032354.741476 -0.083818 8.776892 -3.783762
1305032354.744730 -0.191583 8.776892 -3.568232
1305032354.745723 -0.191583 8.776892 -3.568232
1305032354.749364 -0.191583 8.681100 -3.592179
1305032354.750360 -0.191583 8.681100 -3.592179
1305032354.751606 -0.191583 8.681100 -3.592179
1305032354.752622 -0.191583 8.681100 -3.592179
1305032354.755863 0.083818 8.489518 -3.592179
1305032354.756862 0.083818 8.489518 -3.592179
1305032354.760368 0.011974 8.489518 -3.592179
1305032354.761483 0.011974 8.489518 -3.592179
1305032354.764631 0.095791 8.393726 -3.687971
1305032354.765753 0.095791 8.393726 -3.687971
1305032354.767397 0.095791 8.393726 -3.687971
1305032354.770516 0.011974 8.585309 -3.592179
1305032354.771481 0.011974 8.585309 -3.592179
1305032354.774729 -0.239479 8.776892 -3.616127
1305032354.775725 -0.239479 8.776892 -3.616127
1305032354.779364 -0.275400 8.968475 -3.879554
1305032354.780359 -0.275400 8.968475 -3.879554
1305032354.781627 -0.275400 8.968475 -3.879554
1305032354.782756 -0.275400 8.968475 -3.879554
1305032354.785905 -0.275400 9.184006 -3.975345
1305032354.786880 -0.275400 9.184006 -3.975345
1305032354.790397 -0.323296 9.351641 -3.975345
1305032354.791522 -0.323296 9.351641 -3.975345
1305032354.794757 -0.275400 9.351641 -3.592179
1305032354.795753 -0.275400 9.351641 -3.592179
1305032354.796990 -0.275400 9.351641 -3.592179
1305032354.797998 -0.275400 9.351641 -3.592179
1305032354.801519 -0.478957 9.351641 -3.592179
1305032354.802622 -0.478957 9.351641 -3.592179
1305032354.805774 -0.275400 9.207953 -3.400597
1305032354.806902 -0.275400 9.207953 -3.400597
1305032354.810521 -0.323296 9.112162 -3.209014
1305032354.811494 -0.323296 9.112162 -3.209014
1305032354.814771 -0.275400 9.160058 -3.256909
1305032354.815762 -0.275400 9.160058 -3.256909
1305032354.819396 -0.191583 8.872683 -3.400597
1305032354.820434 -0.191583 8.872683 -3.400597
1305032354.821651 -0.191583 8.872683 -3.400597
1305032354.822636 -0.191583 8.872683 -3.400597
1305032354.825957 -0.275400 8.776892 -3.220988
1305032354.826896 -0.275400 8.776892 -3.220988
1305032354.830519 -0.191583 8.585309 -3.400597
1305032354.831513 -0.191583 8.585309 -3.400597
1305032354.834781 -0.191583 8.393726 -3.496388
1305032354.835780 -0.191583 8.393726 -3.496388
1305032354.839429 -0.299348 8.585309 -3.592179
1305032354.840405 -0.299348 8.585309 -3.592179
1305032354.841648 -0.299348 8.585309 -3.592179
1305032354.842651 -0.299348 8.585309 -3.592179
1305032354.845907 -0.323296 8.393726 -3.927450
1305032354.847031 -0.323296 8.393726 -3.927450
1305032354.850544 -0.478957 8.585309 -3.999293
1305032354.851662 -0.478957 8.585309 -3.999293
1305032354.854795 -0.478957 8.776892 -3.999293
1305032354.855774 -0.478957 8.776892 -3.999293
1305032354.859414 -0.574749 9.064266 -4.023241
1305032354.860389 -0.574749 9.064266 -4.023241
1305032354.861661 -0.574749 9.064266 -4.023241
1305032354.862662 -0.574749 9.064266 -4.023241
1305032354.865804 -0.622644 9.160058 -4.023241
1305032354.866912 -0.622644 9.160058 -4.023241
1305032354.870546 -0.478957 9.255849 -3.975345
1305032354.871543 -0.478957 9.255849 -3.975345
1305032354.874675 -0.478957 9.495328 -3.975345
1305032354.875666 -0.478957 9.495328 -3.975345
1305032354.876902 -0.478957 9.495328 -3.975345
1305032354.877902 -0.478957 9.495328 -3.975345
1305032354.881564 -0.275400 9.207953 -3.783762
1305032354.882684 -0.275400 9.207953 -3.783762
1305032354.885804 -0.191583 9.148084 -3.592179
1305032354.886934 -0.191583 9.148084 -3.592179
1305032354.890553 -0.275400 8.968475 -3.304805
1305032354.891575 -0.275400 8.968475 -3.304805
1305032354.894808 -0.083818 8.776892 -3.304805
1305032354.895800 -0.083818 8.776892 -3.304805
1305032354.899421 -0.239479 8.489518 -3.209014
1305032354.900459 -0.239479 8.489518 -3.209014
1305032354.901416 -0.239479 8.489518 -3.209014
1305032354.904831 0.095791 8.297935 -3.209014
1305032354.905843 0.095791 8.297935 -3.209014
1305032354.909427 -0.083818 8.058456 -3.209014
1305032354.910434 -0.083818 8.058456 -3.209014
1305032354.911685 -0.083818 8.058456 -3.209014
1305032354.912679 -0.083818 8.058456 -3.209014
1305032354.915945 -0.275400 8.034508 -3.209014
1305032354.916944 -0.275400 8.034508 -3.209014
1305032354.922026 -0.574749 8.022534 -3.209014
1305032354.924469 -0.646592 7.962665 -3.592179
1305032354.925426 -0.646592 7.962665 -3.592179
1305032354.926679 -0.646592 7.962665 -3.592179
1305032354.927815 -0.646592 7.962665 -3.592179
1305032354.930948 -0.754358 7.914769 -3.687971
1305032354.931947 -0.754358 7.914769 -3.687971
1305032354.935602 -0.957915 8.202143 -3.783762
1305032354.936599 -0.957915 8.202143 -3.783762
1305032354.939866 -1.005810 8.393726 -3.975345
1305032354.940828 -1.005810 8.393726 -3.975345
1305032354.944459 -1.005810 8.393726 -4.166928
1305032354.945435 -1.005810 8.393726 -4.166928
1305032354.946831 -1.005810 8.393726 -4.166928
1305032354.947816 -1.005810 8.393726 -4.166928
1305032354.950976 -1.053706 8.788866 -3.975345
1305032354.951967 -1.053706 8.788866 -3.975345
1305032354.955727 -1.053706 9.160058 -3.687971
1305032354.956721 -1.053706 9.160058 -3.687971
1305032354.959841 -1.005810 9.172032 -3.592179
1305032354.960825 -1.005810 9.172032 -3.592179
1305032354.964489 -0.850149 9.255849 -3.304805
1305032354.965529 -0.850149 9.255849 -3.304805
1305032354.966928 -0.850149 9.255849 -3.304805
1305032354.969870 -0.850149 9.351641 -3.017431
1305032354.971024 -0.850149 9.351641 -3.017431
1305032354.974471 -0.658566 9.351641 -2.921639
1305032354.975454 -0.658566 9.351641 -2.921639
1305032354.976718 -0.658566 9.351641 -2.921639
1305032354.977717 -0.658566 9.351641 -2.921639
1305032354.980989 -0.478957 9.255849 -3.209014
1305032354.981977 -0.478957 9.255849 -3.209014
1305032354.985595 -0.275400 9.160058 -3.209014
1305032354.986610 -0.275400 9.160058 -3.209014
1305032354.989853 -0.191583 8.800840 -3.592179
1305032354.990846 -0.191583 8.800840 -3.592179
1305032354.994495 -0.275400 8.728996 -3.975345
1305032354.995463 -0.275400 8.728996 -3.975345
1305032354.996730 -0.275400 8.728996 -3.975345
1305032354.997706 -0.275400 8.728996 -3.975345
1305032355.001032 -0.299348 8.728996 -4.358511
1305032355.001998 -0.299348 8.728996 -4.358511
1305032355.005654 -0.478957 8.585309 -4.765625
1305032355.006622 -0.478957 8.585309 -4.765625
1305032355.009865 -0.658566 8.681100 -5.316426
1305032355.011238 -0.658566 8.681100 -5.316426
1305032355.014495 -0.850149 8.681100 -5.220634
1305032355.015597 -0.850149 8.681100 -5.220634
1305032355.016741 -0.850149 8.681100 -5.220634
1305032355.017738 -0.850149 8.681100 -5.220634
1305032355.021044 -0.957915 8.681100 -5.603800
1305032355.021992 -0.957915 8.681100 -5.603800
1305032355.025486 -1.065680 8.728996 -5.508009
1305032355.026604 -1.065680 8.728996 -5.508009
1305032355.029866 -1.137524 8.776892 -5.412217
1305032355.030871 -1.137524 8.776892 -5.412217
1305032355.034512 -1.341080 8.776892 -5.412217
1305032355.035493 -1.341080 8.776892 -5.412217
1305032355.036820 -1.341080 8.776892 -5.412217
1305032355.037795 -1.341080 8.776892 -5.412217
1305032355.041035 -1.341080 8.872683 -5.124843
1305032355.041999 -1.341080 8.872683 -5.124843
1305032355.045633 -1.424898 8.968475 -4.837468
1305032355.046627 -1.424898 8.968475 -4.837468
1305032355.049885 -1.436872 9.064266 -4.741677
1305032355.050890 -1.436872 9.064266 -4.741677
1305032355.054530 -1.412924 9.148084 -4.741677
1305032355.055496 -1.412924 9.148084 -4.741677
1305032355.056805 -1.412924 9.148084 -4.741677
1305032355.057757 -1.412924 9.148084 -4.741677
1305032355.060887 -1.245289 8.968475 -4.550094
1305032355.061880 -1.245289 8.968475 -4.550094
1305032355.065563 -1.245289 9.112162 -4.550094
1305032355.066647 -1.245289 9.112162 -4.550094
1305032355.069804 -1.053706 9.112162 -4.550094
1305032355.070776 -1.053706 9.112162 -4.550094
1305032355.072014 -1.053706 9.112162 -4.550094
1305032355.073014 -1.053706 9.112162 -4.550094
1305032355.076644 -1.341080 9.160058 -4.550094
1305032355.077638 -1.341080 9.160058 -4.550094
1305032355.081019 -1.436872 9.172032 -4.729703
1305032355.082020 -1.436872 9.172032 -4.729703
1305032355.085677 -1.412924 9.112162 -4.837468
1305032355.086683 -1.412924 9.112162 -4.837468
1305032355.089972 -1.341080 9.136110 -4.933260
1305032355.090880 -1.341080 9.136110 -4.933260
1305032355.094513 -1.472794 9.112162 -4.933260
1305032355.095510 -1.472794 9.112162 -4.933260
1305032355.096779 -1.472794 9.112162 -4.933260
1305032355.097771 -1.472794 9.112162 -4.933260
1305032355.100914 -1.436872 8.968475 -4.741677
1305032355.102057 -1.436872 8.968475 -4.741677
1305032355.105530 -1.436872 8.968475 -4.693781
1305032355.106687 -1.436872 8.968475 -4.693781
1305032355.109974 -1.412924 8.776892 -4.741677
1305032355.110887 -1.412924 8.776892 -4.741677
1305032355.114529 -1.472794 8.776892 -4.645885
1305032355.115516 -1.472794 8.776892 -4.645885
1305032355.116782 -1.472794 8.776892 -4.645885
1305032355.117779 -1.472794 8.776892 -4.645885
1305032355.120939 -1.424898 8.776892 -4.645885
1305032355.121923 -1.424898 8.776892 -4.645885
1305032355.125556 -1.436872 8.681100 -4.741677
1305032355.126675 -1.436872 8.681100 -4.741677
1305032355.129895 -1.436872 8.681100 -4.741677
1305032355.130957 -1.436872 8.681100 -4.741677
1305032355.134552 -1.520689 8.417674 -4.741677
1305032355.135543 -1.520689 8.417674 -4.741677
1305032355.136796 -1.520689 8.417674 -4.741677
1305032355.137784 -1.520689 8.417674 -4.741677
1305032355.141039 -1.448846 8.106352 -4.789573
1305032355.142045 -1.448846 8.106352 -4.789573
1305032355.145533 -1.436872 8.202143 -4.789573
1305032355.146677 -1.436872 8.202143 -4.789573
1305032355.149936 -1.436872 8.022534 -5.124843
1305032355.151054 -1.436872 8.022534 -5.124843
1305032355.154707 -1.388976 8.010560 -5.100895
1305032355.155676 -1.388976 8.010560 -5.100895
1305032355.156949 -1.388976 8.010560 -5.100895
1305032355.157913 -1.388976 8.010560 -5.100895
1305032355.160955 -1.472794 7.998586 -5.124843
1305032355.162055 -1.472794 7.998586 -5.124843
1305032355.165566 -1.436872 8.010560 -5.124843
1305032355.166687 -1.436872 8.010560 -5.124843
1305032355.169814 -1.616481 8.010560 -5.076947
1305032355.170953 -1.616481 8.010560 -5.076947
1305032355.172066 -1.616481 8.010560 -5.076947
1305032355.173186 -1.616481 8.010560 -5.076947
1305032355.176695 -1.448846 7.962665 -5.172738
1305032355.177795 -1.448846 7.962665 -5.172738
1305032355.181079 -1.436872 7.675290 -5.316426
1305032355.182048 -1.436872 7.675290 -5.316426
1305032355.185608 -1.436872 7.675290 -5.316426
1305032355.186701 -1.436872 7.675290 -5.316426
1305032355.189820 -1.616481 7.627394 -5.508009
1305032355.190962 -1.616481 7.627394 -5.508009
1305032355.192476 -1.616481 7.627394 -5.508009
1305032355.193553 -1.616481 7.627394 -5.508009
1305032355.196822 -1.772142 7.256203 -5.484061
1305032355.197821 -1.772142 7.256203 -5.484061
1305032355.201095 -1.772142 7.196333 -5.699591
1305032355.202076 -1.772142 7.196333 -5.699591
1305032355.205730 -2.011621 7.052646 -5.603800
1305032355.206840 -2.011621 7.052646 -5.603800
1305032355.209958 -2.011621 7.052646 -5.891174
1305032355.211115 -2.011621 7.052646 -5.891174
1305032355.214588 -1.855959 7.052646 -6.082757
1305032355.215689 -1.855959 7.052646 -6.082757
1305032355.216831 -1.855959 7.052646 -6.082757
1305032355.217957 -1.855959 7.052646 -6.082757
1305032355.221182 -2.155308 7.244229 -6.082757
1305032355.222581 -2.155308 7.244229 -6.082757
1305032355.225720 -2.203203 7.340020 -6.226444
1305032355.226720 -2.203203 7.340020 -6.226444
1305032355.229961 -2.215177 7.435812 -6.274340
1305032355.230986 -2.215177 7.435812 -6.274340
1305032355.234615 -2.107412 7.435812 -6.274340
1305032355.235580 -2.107412 7.435812 -6.274340
1305032355.236849 -2.107412 7.435812 -6.274340
1305032355.237871 -2.107412 7.435812 -6.274340
1305032355.241103 -2.155308 7.603447 -5.891174
1305032355.242091 -2.155308 7.603447 -5.891174
1305032355.245723 -2.191229 7.435812 -5.891174
1305032355.246848 -2.191229 7.435812 -5.891174
1305032355.249979 -2.155308 7.531603 -5.699591
1305032355.251076 -2.155308 7.531603 -5.699591
1305032355.254724 -2.203203 7.603447 -5.316426
1305032355.255725 -2.203203 7.603447 -5.316426
1305032355.256986 -2.203203 7.603447 -5.316426
1305032355.257966 -2.203203 7.603447 -5.316426
1305032355.261022 -1.903855 7.435812 -5.124843
1305032355.261953 -1.903855 7.435812 -5.124843
1305032355.265650 -2.107412 7.268176 -5.029051
1305032355.266598 -2.107412 7.268176 -5.029051
1305032355.269868 -2.011621 7.268176 -4.933260
1305032355.270971 -2.011621 7.268176 -4.933260
1305032355.272158 -2.011621 7.268176 -4.933260
1305032355.273256 -2.011621 7.268176 -4.933260
1305032355.276755 -1.820038 7.292124 -4.741677
1305032355.277745 -1.820038 7.292124 -4.741677
1305032355.281001 -1.808064 7.340020 -4.741677
1305032355.282142 -1.808064 7.340020 -4.741677
1305032355.285661 -1.616481 7.268176 -4.550094
1305032355.286791 -1.616481 7.268176 -4.550094
1305032355.289897 -1.520689 7.340020 -4.454303
1305032355.290982 -1.520689 7.340020 -4.454303
1305032355.292130 -1.520689 7.340020 -4.454303
1305032355.293256 -1.520689 7.340020 -4.454303
1305032355.296866 -1.424898 7.052646 -4.837468
1305032355.297851 -1.424898 7.052646 -4.837468
1305032355.301130 -1.341080 7.052646 -4.933260
1305032355.302110 -1.341080 7.052646 -4.933260
1305032355.305736 -1.436872 6.861063 -5.220634
1305032355.306865 -1.436872 6.861063 -5.220634
1305032355.310087 -1.520689 6.813167 -5.508009
1305032355.311109 -1.520689 6.813167 -5.508009
1305032355.314761 -1.424898 6.477897 -5.939070
1305032355.315736 -1.424898 6.477897 -5.939070
1305032355.317009 -1.424898 6.477897 -5.939070
1305032355.318002 -1.424898 6.477897 -5.939070
1305032355.321146 -1.616481 6.286314 -6.274340
1305032355.322163 -1.616481 6.286314 -6.274340
1305032355.325749 -1.724246 6.094731 -6.561715
1305032355.326881 -1.724246 6.094731 -6.561715
1305032355.329999 -1.808064 6.094731 -6.609610
1305032355.331022 -1.808064 6.094731 -6.609610
1305032355.334693 -1.724246 6.046835 -6.753297
1305032355.335616 -1.724246 6.046835 -6.753297
1305032355.336904 -1.724246 6.046835 -6.753297
1305032355.337902 -1.724246 6.046835 -6.753297
1305032355.341124 -1.808064 5.711565 -6.657506
1305032355.342123 -1.808064 5.711565 -6.657506
1305032355.345747 -1.808064 5.903148 -6.465923
1305032355.346767 -1.808064 5.903148 -6.465923
1305032355.350027 -1.808064 6.082757 -6.274340
1305032355.351012 -1.808064 6.082757 -6.274340
1305032355.354794 -1.820038 6.142627 -5.986966
1305032355.355768 -1.820038 6.142627 -5.986966
1305032355.357036 -1.820038 6.142627 -5.986966
1305032355.358045 -1.820038 6.142627 -5.986966
1305032355.361158 -1.808064 6.190523 -5.699591
1305032355.362146 -1.808064 6.190523 -5.699591
1305032355.365838 -1.772142 6.430001 -5.603800
1305032355.366788 -1.772142 6.430001 -5.603800
1305032355.370037 -1.520689 6.477897 -5.316426
1305032355.371167 -1.520689 6.477897 -5.316426
1305032355.374785 -1.436872 6.477897 -5.460113
1305032355.375763 -1.436872 6.477897 -5.460113
1305032355.377047 -1.436872 6.477897 -5.460113
1305032355.378017 -1.436872 6.477897 -5.460113
1305032355.381170 -1.436872 6.477897 -5.124843
1305032355.382138 -1.436872 6.477897 -5.124843
1305032355.385786 -1.341080 6.286314 -5.100895
1305032355.386801 -1.341080 6.286314 -5.100895
1305032355.390044 -1.341080 6.190523 -5.124843
1305032355.391042 -1.341080 6.190523 -5.124843
1305032355.394674 -1.089628 6.094731 -5.412217
1305032355.395841 -1.089628 6.094731 -5.412217
1305032355.396938 -1.089628 6.094731 -5.412217
1305032355.397902 -1.089628 6.094731 -5.412217
1305032355.401186 -1.089628 6.286314 -5.843279
1305032355.402187 -1.089628 6.286314 -5.843279
1305032355.405709 -1.341080 6.382106 -5.939070
1305032355.406809 -1.341080 6.382106 -5.939070
1305032355.410043 -1.436872 6.489871 -6.465923
